TrialNumber;bg_or;t_or;num_distractors;trial_id;trial_rep;participant;trial_type;trial_index;resp_rt;resp_corr;resp_keys;target_pos;target_size;singleton_id;singleton_pos;singleton_size;singleton_ori;lures_pos;lures_size;lures_ori;original_TrialNum;thisRepN_original;thisRepN;bg_or_original;t_or_original;num_distractors_original;ran;order;trial_inblock_index;block_index
1;0;1;0;11;0;12.0;test_search;1.0;0.8646248;1.0;right;[-463.0, 73.0];[35.0, 30.0];1.0;[287.0, -312.0];[35.0, 30.0];1.0;[];[];[];22.0;0.0;0.0;0.0;1.0;0.0;1.0;0.0;1.0;1.0
2;0;0;4;3;0;12.0;test_search;2.0;0.6882837;1.0;left;[286.0, 63.0];[35.0, 30.0];0.0;[-477.0, 302.0];[35.0, 30.0];1.0;[[-294.0, -189.0], [-303.0, -74.0], [295.0, -169.0], [475.0, -315.0]];[[35.0, 30.0], [35.0, 30.0], [35.0, 30.0], [35.0, 30.0]];[1, 1, 1, 0];5.0;0.0;0.0;0.0;0.0;4.0;1.0;1.0;2.0;1.0
3;1;1;2;17;0;12.0;test_search;3.0;0.8508544;1.0;right;[-645.0, -305.0];[35.0, 30.0];1.0;[292.0, 294.0];[35.0, 30.0];0.0;[[-475.0, -53.0], [305.0, 184.0]];[[35.0, 30.0], [35.0, 30.0]];[1, 1];34.0;0.0;0.0;1.0;1.0;2.0;1.0;2.0;3.0;1.0
4;1;1;0;16;0;12.0;test_search;4.0;0.6409919;1.0;right;[-462.0, 56.0];[35.0, 30.0];1.0;[312.0, 186.0];[35.0, 30.0];1.0;[];[];[];32.0;0.0;0.0;1.0;1.0;0.0;1.0;3.0;4.0;1.0
5;1;0;8;9;0;12.0;test_search;5.0;0.7719284;1.0;left;[300.0, 66.0];[35.0, 30.0];0.0;[-478.0, 177.0];[35.0, 30.0];1.0;[[-627.0, 310.0], [-459.0, -181.0], [-290.0, -74.0], [-290.0, 52.0], [290.0, -192.0], [467.0, -181.0], [456.0, 308.0], [617.0, -290.0]];[[35.0, 30.0], [35.0, 30.0], [35.0, 30.0], [35.0, 30.0], [35.0, 30.0], [35.0, 30.0], [35.0, 30.0], [35.0, 30.0]];[0, 1, 1, 0, 0, 0, 0, 1];17.0;0.0;0.0;1.0;0.0;8.0;1.0;4.0;5.0;1.0
6;1;1;8;19;0;12.0;test_search;6.0;0.6276478;1.0;right;[-302.0, 63.0];[35.0, 30.0];1.0;[478.0, -58.0];[35.0, 30.0];1.0;[[-631.0, 285.0], [-459.0, 183.0], [-473.0, 292.0], [-311.0, 309.0], [290.0, -166.0], [290.0, 314.0], [464.0, 193.0], [627.0, 300.0]];[[35.0, 30.0], [35.0, 30.0], [35.0, 30.0], [35.0, 30.0], [35.0, 30.0], [35.0, 30.0], [35.0, 30.0], [35.0, 30.0]];[0, 0, 1, 1, 0, 1, 0, 0];38.0;0.0;0.0;1.0;1.0;8.0;1.0;5.0;6.0;1.0
7;1;1;4;18;0;12.0;test_search;7.0;0.9859498;1.0;right;[630.0, -63.0];[35.0, 30.0];1.0;[-306.0, 305.0];[35.0, 30.0];0.0;[[-635.0, -54.0], [-630.0, 66.0], [477.0, -171.0], [474.0, 306.0]];[[35.0, 30.0], [35.0, 30.0], [35.0, 30.0], [35.0, 30.0]];[1, 0, 1, 1];36.0;0.0;0.0;1.0;1.0;4.0;1.0;6.0;7.0;1.0
8;0;0;8;4;0;12.0;test_search;8.0;0.8159817;1.0;left;[643.0, 174.0];[35.0, 30.0];0.0;[-616.0, 285.0];[35.0, 30.0];1.0;[[-625.0, 185.0], [-461.0, -286.0], [-473.0, -58.0], [-297.0, -61.0], [307.0, -304.0], [298.0, -62.0], [478.0, 169.0], [465.0, 297.0]];[[35.0, 30.0], [35.0, 30.0], [35.0, 30.0], [35.0, 30.0], [35.0, 30.0], [35.0, 30.0], [35.0, 30.0], [35.0, 30.0]];[1, 1, 1, 1, 0, 0, 1, 1];7.0;0.0;0.0;0.0;0.0;8.0;1.0;7.0;8.0;1.0
9;1;1;16;20;0;12.0;test_search;9.0;0.834472;1.0;right;[302.0, 309.0];[35.0, 30.0];1.0;[-465.0, 65.0];[35.0, 30.0];0.0;[[-624.0, -183.0], [-641.0, -67.0], [-640.0, 171.0], [-630.0, 312.0], [-468.0, -186.0], [-464.0, -48.0], [-308.0, -304.0], [-300.0, -178.0], [302.0, -193.0], [303.0, 175.0], [456.0, -297.0], [459.0, -187.0], [478.0, 60.0], [469.0, 172.0], [644.0, -63.0], [617.0, 57.0]];[[35.0, 30.0], [35.0, 30.0], [35.0, 30.0], [35.0, 30.0], [35.0, 30.0], [35.0, 30.0], [35.0, 30.0], [35.0, 30.0], [35.0, 30.0], [35.0, 30.0], [35.0, 30.0], [35.0, 30.0], [35.0, 30.0], [35.0, 30.0], [35.0, 30.0], [35.0, 30.0]];[1, 1, 1, 0, 1, 0, 0, 0, 0, 1, 1, 0, 1, 0, 0, 0];40.0;0.0;0.0;1.0;1.0;16.0;1.0;8.0;9.0;1.0
10;0;1;16;15;0;12.0;test_search;10.0;1.1555209;1.0;right;[457.0, -182.0];[35.0, 30.0];1.0;[-625.0, -312.0];[35.0, 30.0];0.0;[[-632.0, -46.0], [-616.0, 50.0], [-476.0, -179.0], [-479.0, -74.0], [-455.0, 56.0], [-313.0, -73.0], [-286.0, 171.0], [-298.0, 292.0], [310.0, -315.0], [309.0, -168.0], [288.0, -50.0], [287.0, 59.0], [311.0, 166.0], [472.0, -62.0], [458.0, 296.0], [616.0, 313.0]];[[35.0, 30.0], [35.0, 30.0], [35.0, 30.0], [35.0, 30.0], [35.0, 30.0], [35.0, 30.0], [35.0, 30.0], [35.0, 30.0], [35.0, 30.0], [35.0, 30.0], [35.0, 30.0], [35.0, 30.0], [35.0, 30.0], [35.0, 30.0], [35.0, 30.0], [35.0, 30.0]];[1, 1, 1, 0, 0, 0, 1, 0, 1, 0, 0, 1, 0, 1, 0, 1];30.0;0.0;0.0;0.0;1.0;16.0;1.0;9.0;10.0;1.0
11;1;0;16;10;0;12.0;test_search;11.0;0.8007225;1.0;left;[-286.0, -59.0];[35.0, 30.0];0.0;[473.0, 72.0];[35.0, 30.0];0.0;[[-619.0, -289.0], [-641.0, -59.0], [-644.0, 68.0], [-455.0, -180.0], [-476.0, -71.0], [-463.0, 66.0], [-462.0, 194.0], [-298.0, 179.0], [302.0, -302.0], [293.0, 189.0], [297.0, 307.0], [457.0, -182.0], [465.0, 313.0], [638.0, -167.0], [634.0, -65.0], [643.0, 65.0]];[[35.0, 30.0], [35.0, 30.0], [35.0, 30.0], [35.0, 30.0], [35.0, 30.0], [35.0, 30.0], [35.0, 30.0], [35.0, 30.0], [35.0, 30.0], [35.0, 30.0], [35.0, 30.0], [35.0, 30.0], [35.0, 30.0], [35.0, 30.0], [35.0, 30.0], [35.0, 30.0]];[1, 1, 1, 0, 1, 1, 1, 1, 1, 1, 1, 0, 1, 0, 0, 1];19.0;0.0;0.0;1.0;0.0;16.0;1.0;10.0;11.0;1.0
12;1;0;4;8;0;12.0;test_search;12.0;0.8106734;1.0;left;[314.0, 73.0];[35.0, 30.0];0.0;[-295.0, -294.0];[35.0, 30.0];0.0;[[-631.0, 298.0], [-299.0, 185.0], [470.0, 314.0], [618.0, -170.0]];[[35.0, 30.0], [35.0, 30.0], [35.0, 30.0], [35.0, 30.0]];[1, 1, 1, 1];15.0;0.0;0.0;1.0;0.0;4.0;1.0;11.0;12.0;1.0
13;0;0;2;2;0;12.0;test_search;13.0;0.8079378;1.0;left;[641.0, -181.0];[35.0, 30.0];0.0;[-299.0, -288.0];[35.0, 30.0];0.0;[[-634.0, -52.0], [464.0, 290.0]];[[35.0, 30.0], [35.0, 30.0]];[0, 0];3.0;0.0;0.0;0.0;0.0;2.0;1.0;12.0;13.0;1.0
14;1;0;2;7;0;12.0;test_search;14.0;0.9391123;1.0;left;[476.0, -300.0];[35.0, 30.0];0.0;[-641.0, -185.0];[35.0, 30.0];1.0;[[-458.0, -314.0], [287.0, 56.0]];[[35.0, 30.0], [35.0, 30.0]];[0, 0];13.0;0.0;0.0;1.0;0.0;2.0;1.0;13.0;14.0;1.0
15;0;0;0;1;0;12.0;test_search;15.0;0.78248;1.0;left;[472.0, -166.0];[35.0, 30.0];0.0;[-461.0, -49.0];[35.0, 30.0];1.0;[];[];[];1.0;0.0;0.0;0.0;0.0;0.0;1.0;14.0;15.0;1.0
16;0;1;2;12;0;12.0;test_search;16.0;0.8214487;1.0;right;[644.0, -57.0];[35.0, 30.0];1.0;[-468.0, 309.0];[35.0, 30.0];1.0;[[-617.0, 297.0], [479.0, 297.0]];[[35.0, 30.0], [35.0, 30.0]];[1, 0];24.0;0.0;0.0;0.0;1.0;2.0;1.0;15.0;16.0;1.0
17;0;1;4;13;0;12.0;test_search;17.0;0.9609825;1.0;right;[615.0, 183.0];[35.0, 30.0];1.0;[-307.0, 303.0];[35.0, 30.0];0.0;[[-639.0, -288.0], [-625.0, 305.0], [309.0, -172.0], [300.0, 294.0]];[[35.0, 30.0], [35.0, 30.0], [35.0, 30.0], [35.0, 30.0]];[1, 1, 0, 1];26.0;0.0;0.0;0.0;1.0;4.0;1.0;16.0;17.0;1.0
18;1;0;0;6;0;12.0;test_search;18.0;0.8019078;1.0;left;[627.0, 188.0];[35.0, 30.0];0.0;[-295.0, 288.0];[35.0, 30.0];1.0;[];[];[];11.0;0.0;0.0;1.0;0.0;0.0;1.0;17.0;18.0;1.0
19;0;1;8;14;0;12.0;test_search;19.0;0.7228544;1.0;right;[289.0, 55.0];[35.0, 30.0];1.0;[-475.0, 306.0];[35.0, 30.0];1.0;[[-628.0, 166.0], [-457.0, -293.0], [-466.0, -47.0], [-307.0, -185.0], [298.0, 171.0], [475.0, -72.0], [643.0, -191.0], [637.0, -65.0]];[[35.0, 30.0], [35.0, 30.0], [35.0, 30.0], [35.0, 30.0], [35.0, 30.0], [35.0, 30.0], [35.0, 30.0], [35.0, 30.0]];[1, 1, 0, 0, 0, 0, 0, 0];28.0;0.0;0.0;0.0;1.0;8.0;1.0;18.0;19.0;1.0
20;0;0;16;5;0;12.0;test_search;20.0;0.9514336;1.0;left;[288.0, 308.0];[35.0, 30.0];0.0;[-301.0, 306.0];[35.0, 30.0];0.0;[[-618.0, -315.0], [-632.0, 49.0], [-631.0, 179.0], [-466.0, -294.0], [-473.0, -56.0], [-457.0, 194.0], [-311.0, -183.0], [-297.0, 55.0], [300.0, -312.0], [300.0, 64.0], [464.0, -288.0], [471.0, -194.0], [474.0, -73.0], [468.0, 58.0], [644.0, -169.0], [633.0, 70.0]];[[35.0, 30.0], [35.0, 30.0], [35.0, 30.0], [35.0, 30.0], [35.0, 30.0], [35.0, 30.0], [35.0, 30.0], [35.0, 30.0], [35.0, 30.0], [35.0, 30.0], [35.0, 30.0], [35.0, 30.0], [35.0, 30.0], [35.0, 30.0], [35.0, 30.0], [35.0, 30.0]];[0, 0, 1, 0, 1, 0, 1, 1, 1, 1, 0, 1, 0, 1, 1, 1];9.0;0.0;0.0;0.0;0.0;16.0;1.0;19.0;20.0;1.0
21;0;0;4;3;0;12.0;test_search;21.0;1.7147151;1.0;left;[309.0, 299.0];[35.0, 30.0];1.0;[-308.0, 66.0];[35.0, 30.0];0.0;[[-630.0, -190.0], [-642.0, 188.0], [477.0, 51.0], [617.0, 172.0]];[[35.0, 30.0], [35.0, 30.0], [35.0, 30.0], [35.0, 30.0]];[0, 1, 1, 0];6.0;1.0;1.0;0.0;0.0;4.0;1.0;20.0;21.0;1.0
22;1;0;16;10;0;12.0;test_search;22.0;0.7680888;1.0;left;[470.0, 180.0];[35.0, 30.0];1.0;[-639.0, 192.0];[35.0, 30.0];0.0;[[-643.0, -306.0], [-621.0, -59.0], [-474.0, -166.0], [-474.0, -69.0], [-469.0, 50.0], [-458.0, 188.0], [-288.0, 187.0], [-298.0, 312.0], [286.0, 178.0], [465.0, -176.0], [474.0, 55.0], [470.0, 307.0], [624.0, -287.0], [620.0, 66.0], [616.0, 174.0], [642.0, 298.0]];[[35.0, 30.0], [35.0, 30.0], [35.0, 30.0], [35.0, 30.0], [35.0, 30.0], [35.0, 30.0], [35.0, 30.0], [35.0, 30.0], [35.0, 30.0], [35.0, 30.0], [35.0, 30.0], [35.0, 30.0], [35.0, 30.0], [35.0, 30.0], [35.0, 30.0], [35.0, 30.0]];[0, 1, 1, 0, 0, 0, 0, 1, 0, 1, 0, 1, 0, 1, 0, 1];20.0;1.0;1.0;1.0;0.0;16.0;1.0;21.0;22.0;1.0
23;0;1;0;11;0;12.0;test_search;23.0;0.7659107;1.0;right;[-466.0, 173.0];[35.0, 30.0];0.0;[642.0, 314.0];[35.0, 30.0];1.0;[];[];[];21.0;1.0;1.0;0.0;1.0;0.0;1.0;22.0;23.0;1.0
24;1;1;0;16;0;12.0;test_search;24.0;0.783433;1.0;right;[-465.0, 314.0];[35.0, 30.0];0.0;[286.0, -183.0];[35.0, 30.0];0.0;[];[];[];31.0;1.0;1.0;1.0;1.0;0.0;1.0;23.0;24.0;1.0
25;0;1;4;13;0;12.0;test_search;25.0;1.1928954;1.0;right;[-476.0, 170.0];[35.0, 30.0];0.0;[629.0, 171.0];[35.0, 30.0];0.0;[[-635.0, -173.0], [-453.0, -186.0], [292.0, 45.0], [304.0, 285.0]];[[35.0, 30.0], [35.0, 30.0], [35.0, 30.0], [35.0, 30.0]];[0, 1, 0, 1];25.0;1.0;1.0;0.0;1.0;4.0;1.0;24.0;25.0;1.0
26;1;1;16;20;0;12.0;test_search;26.0;0.95894;1.0;right;[300.0, 291.0];[35.0, 30.0];0.0;[-308.0, -313.0];[35.0, 30.0];1.0;[[-621.0, 56.0], [-634.0, 173.0], [-479.0, -313.0], [-461.0, -189.0], [-473.0, -65.0], [-453.0, 184.0], [-295.0, -61.0], [-290.0, 178.0], [302.0, -182.0], [288.0, -67.0], [303.0, 191.0], [466.0, -293.0], [461.0, -191.0], [458.0, 308.0], [635.0, -310.0], [636.0, 172.0]];[[35.0, 30.0], [35.0, 30.0], [35.0, 30.0], [35.0, 30.0], [35.0, 30.0], [35.0, 30.0], [35.0, 30.0], [35.0, 30.0], [35.0, 30.0], [35.0, 30.0], [35.0, 30.0], [35.0, 30.0], [35.0, 30.0], [35.0, 30.0], [35.0, 30.0], [35.0, 30.0]];[0, 1, 1, 0, 1, 1, 1, 1, 1, 0, 1, 0, 1, 0, 1, 1];39.0;1.0;1.0;1.0;1.0;16.0;1.0;25.0;26.0;1.0
27;0;1;2;12;0;12.0;test_search;27.0;0.8009988;1.0;right;[-627.0, -72.0];[35.0, 30.0];0.0;[303.0, -72.0];[35.0, 30.0];1.0;[[-618.0, -301.0], [292.0, -286.0]];[[35.0, 30.0], [35.0, 30.0]];[0, 1];23.0;1.0;1.0;0.0;1.0;2.0;1.0;26.0;27.0;1.0
28;1;0;8;9;0;12.0;test_search;28.0;0.8803061;1.0;left;[479.0, 61.0];[35.0, 30.0];1.0;[-299.0, 56.0];[35.0, 30.0];0.0;[[-636.0, -166.0], [-628.0, 72.0], [-462.0, 175.0], [-313.0, -184.0], [291.0, 183.0], [469.0, -178.0], [471.0, 305.0], [627.0, -315.0]];[[35.0, 30.0], [35.0, 30.0], [35.0, 30.0], [35.0, 30.0], [35.0, 30.0], [35.0, 30.0], [35.0, 30.0], [35.0, 30.0]];[0, 1, 1, 1, 0, 1, 1, 1];18.0;1.0;1.0;1.0;0.0;8.0;1.0;27.0;28.0;1.0
29;1;0;0;6;0;12.0;test_search;29.0;0.8447028;1.0;left;[-462.0, 192.0];[35.0, 30.0];1.0;[627.0, -66.0];[35.0, 30.0];0.0;[];[];[];12.0;1.0;1.0;1.0;0.0;0.0;1.0;28.0;29.0;1.0
30;0;0;16;5;0;12.0;test_search;30.0;0.7688165;1.0;left;[-301.0, 67.0];[35.0, 30.0];1.0;[632.0, 53.0];[35.0, 30.0];0.0;[[-616.0, -64.0], [-636.0, 51.0], [-643.0, 171.0], [-616.0, 299.0], [-477.0, 74.0], [-458.0, 290.0], [-312.0, -310.0], [-309.0, -186.0], [294.0, -59.0], [285.0, 172.0], [297.0, 294.0], [468.0, -301.0], [455.0, -64.0], [478.0, 186.0], [479.0, 307.0], [623.0, -286.0]];[[35.0, 30.0], [35.0, 30.0], [35.0, 30.0], [35.0, 30.0], [35.0, 30.0], [35.0, 30.0], [35.0, 30.0], [35.0, 30.0], [35.0, 30.0], [35.0, 30.0], [35.0, 30.0], [35.0, 30.0], [35.0, 30.0], [35.0, 30.0], [35.0, 30.0], [35.0, 30.0]];[0, 1, 1, 1, 1, 0, 1, 0, 1, 0, 0, 1, 0, 0, 0, 0];10.0;1.0;1.0;0.0;0.0;16.0;1.0;29.0;30.0;1.0
31;1;0;2;7;0;12.0;test_search;31.0;0.8056383;1.0;left;[618.0, -67.0];[35.0, 30.0];1.0;[-457.0, -73.0];[35.0, 30.0];1.0;[[-313.0, -304.0], [469.0, 52.0]];[[35.0, 30.0], [35.0, 30.0]];[0, 0];14.0;1.0;1.0;1.0;0.0;2.0;1.0;30.0;31.0;1.0
32;1;1;4;18;0;12.0;test_search;32.0;0.8772444;1.0;right;[-470.0, -307.0];[35.0, 30.0];0.0;[630.0, 72.0];[35.0, 30.0];0.0;[[-476.0, -189.0], [-463.0, -51.0], [300.0, -309.0], [307.0, -176.0]];[[35.0, 30.0], [35.0, 30.0], [35.0, 30.0], [35.0, 30.0]];[1, 1, 0, 1];35.0;1.0;1.0;1.0;1.0;4.0;1.0;31.0;32.0;1.0
33;0;1;16;15;0;12.0;test_search;33.0;0.7431707;1.0;right;[-298.0, -184.0];[35.0, 30.0];0.0;[296.0, 74.0];[35.0, 30.0];1.0;[[-631.0, -315.0], [-636.0, 56.0], [-626.0, 308.0], [-459.0, -292.0], [-471.0, -191.0], [-479.0, -46.0], [-307.0, 54.0], [-296.0, 186.0], [298.0, 298.0], [475.0, -50.0], [470.0, 66.0], [450.0, 185.0], [634.0, -295.0], [629.0, -173.0], [619.0, -52.0], [635.0, 71.0]];[[35.0, 30.0], [35.0, 30.0], [35.0, 30.0], [35.0, 30.0], [35.0, 30.0], [35.0, 30.0], [35.0, 30.0], [35.0, 30.0], [35.0, 30.0], [35.0, 30.0], [35.0, 30.0], [35.0, 30.0], [35.0, 30.0], [35.0, 30.0], [35.0, 30.0], [35.0, 30.0]];[0, 0, 1, 0, 0, 0, 0, 0, 1, 1, 1, 1, 0, 1, 0, 0];29.0;1.0;1.0;0.0;1.0;16.0;1.0;32.0;33.0;1.0
34;0;0;8;4;0;12.0;test_search;34.0;0.9146853;1.0;left;[621.0, 178.0];[35.0, 30.0];1.0;[-618.0, 54.0];[35.0, 30.0];0.0;[[-639.0, 170.0], [-461.0, -191.0], [-461.0, -48.0], [-315.0, -48.0], [290.0, 51.0], [313.0, 166.0], [460.0, -176.0], [475.0, 189.0]];[[35.0, 30.0], [35.0, 30.0], [35.0, 30.0], [35.0, 30.0], [35.0, 30.0], [35.0, 30.0], [35.0, 30.0], [35.0, 30.0]];[1, 0, 1, 1, 1, 0, 0, 1];8.0;1.0;1.0;0.0;0.0;8.0;1.0;33.0;34.0;1.0
35;1;1;8;19;0;12.0;test_search;35.0;1.2618957;1.0;right;[-287.0, 168.0];[35.0, 30.0];0.0;[473.0, 190.0];[35.0, 30.0];0.0;[[-632.0, -49.0], [-628.0, 69.0], [-298.0, -168.0], [-292.0, 47.0], [302.0, 60.0], [453.0, -55.0], [632.0, -49.0], [624.0, 61.0]];[[35.0, 30.0], [35.0, 30.0], [35.0, 30.0], [35.0, 30.0], [35.0, 30.0], [35.0, 30.0], [35.0, 30.0], [35.0, 30.0]];[0, 0, 0, 0, 0, 0, 1, 1];37.0;1.0;1.0;1.0;1.0;8.0;1.0;34.0;35.0;1.0
36;0;0;0;1;0;12.0;test_search;36.0;0.6553225;1.0;left;[450.0, -179.0];[35.0, 30.0];1.0;[-623.0, -294.0];[35.0, 30.0];0.0;[];[];[];2.0;1.0;1.0;0.0;0.0;0.0;1.0;35.0;36.0;1.0
37;0;0;2;2;0;12.0;test_search;37.0;0.6652587;1.0;left;[-476.0, 186.0];[35.0, 30.0];1.0;[310.0, 174.0];[35.0, 30.0];0.0;[[-456.0, -297.0], [632.0, -286.0]];[[35.0, 30.0], [35.0, 30.0]];[0, 1];4.0;1.0;1.0;0.0;0.0;2.0;1.0;36.0;37.0;1.0
38;1;0;4;8;0;12.0;test_search;38.0;0.6663289;1.0;left;[-464.0, 63.0];[35.0, 30.0];1.0;[625.0, -287.0];[35.0, 30.0];0.0;[[-642.0, 302.0], [-474.0, 296.0], [451.0, -60.0], [631.0, 167.0]];[[35.0, 30.0], [35.0, 30.0], [35.0, 30.0], [35.0, 30.0]];[1, 1, 0, 1];16.0;1.0;1.0;1.0;0.0;4.0;1.0;37.0;38.0;1.0
39;0;1;8;14;0;12.0;test_search;39.0;0.733843;1.0;right;[302.0, 299.0];[35.0, 30.0];0.0;[-309.0, -315.0];[35.0, 30.0];1.0;[[-618.0, -47.0], [-624.0, 49.0], [-462.0, -312.0], [-465.0, 299.0], [305.0, -296.0], [474.0, -309.0], [453.0, 306.0], [632.0, 193.0]];[[35.0, 30.0], [35.0, 30.0], [35.0, 30.0], [35.0, 30.0], [35.0, 30.0], [35.0, 30.0], [35.0, 30.0], [35.0, 30.0]];[1, 1, 0, 0, 1, 0, 0, 0];27.0;1.0;1.0;0.0;1.0;8.0;1.0;38.0;39.0;1.0
40;1;1;2;17;0;12.0;test_search;40.0;0.6923482;1.0;right;[-305.0, -179.0];[35.0, 30.0];0.0;[633.0, -187.0];[35.0, 30.0];0.0;[[-287.0, -289.0], [476.0, -297.0]];[[35.0, 30.0], [35.0, 30.0]];[1, 0];33.0;1.0;1.0;1.0;1.0;2.0;1.0;39.0;40.0;1.0
41;0;0;8;4;0;12.0;test_search;41.0;0.8537079;1.0;left;[-303.0, -314.0];[35.0, 30.0];0.0;[300.0, -47.0];[35.0, 30.0];1.0;[[-633.0, 286.0], [-470.0, -297.0], [-460.0, -177.0], [-479.0, -56.0], [303.0, 287.0], [466.0, 188.0], [624.0, -305.0], [635.0, -166.0]];[[35.0, 30.0], [35.0, 30.0], [35.0, 30.0], [35.0, 30.0], [35.0, 30.0], [35.0, 30.0], [35.0, 30.0], [35.0, 30.0]];[0, 0, 0, 1, 1, 1, 0, 1];47.0;2.0;2.0;0.0;0.0;8.0;1.0;40.0;41.0;1.0
42;1;0;2;7;0;12.0;test_search;42.0;0.9953148;1.0;left;[623.0, 300.0];[35.0, 30.0];0.0;[-466.0, -184.0];[35.0, 30.0];0.0;[[-295.0, 175.0], [472.0, -290.0]];[[35.0, 30.0], [35.0, 30.0]];[1, 1];53.0;2.0;2.0;1.0;0.0;2.0;1.0;41.0;42.0;1.0
43;1;0;8;9;0;12.0;test_search;43.0;1.5874504;1.0;left;[306.0, -179.0];[35.0, 30.0];0.0;[-452.0, -47.0];[35.0, 30.0];0.0;[[-637.0, -292.0], [-456.0, 63.0], [-467.0, 178.0], [-299.0, -289.0], [294.0, 191.0], [473.0, -47.0], [634.0, 73.0], [621.0, 166.0]];[[35.0, 30.0], [35.0, 30.0], [35.0, 30.0], [35.0, 30.0], [35.0, 30.0], [35.0, 30.0], [35.0, 30.0], [35.0, 30.0]];[1, 0, 0, 0, 1, 0, 1, 0];57.0;2.0;2.0;1.0;0.0;8.0;1.0;42.0;43.0;1.0
44;1;1;8;19;0;12.0;test_search;44.0;0.9572126;1.0;right;[458.0, 61.0];[35.0, 30.0];1.0;[-626.0, -299.0];[35.0, 30.0];1.0;[[-617.0, 55.0], [-622.0, 305.0], [-478.0, 310.0], [-294.0, -173.0], [290.0, 186.0], [458.0, -171.0], [644.0, -301.0], [632.0, -187.0]];[[35.0, 30.0], [35.0, 30.0], [35.0, 30.0], [35.0, 30.0], [35.0, 30.0], [35.0, 30.0], [35.0, 30.0], [35.0, 30.0]];[0, 0, 0, 1, 1, 0, 0, 1];78.0;2.0;2.0;1.0;1.0;8.0;1.0;43.0;44.0;1.0
45;0;1;8;14;0;12.0;test_search;45.0;1.4263141;1.0;right;[472.0, 178.0];[35.0, 30.0];1.0;[-301.0, 305.0];[35.0, 30.0];0.0;[[-637.0, -304.0], [-636.0, -169.0], [-622.0, 73.0], [-460.0, 189.0], [291.0, -307.0], [298.0, 69.0], [302.0, 288.0], [618.0, 190.0]];[[35.0, 30.0], [35.0, 30.0], [35.0, 30.0], [35.0, 30.0], [35.0, 30.0], [35.0, 30.0], [35.0, 30.0], [35.0, 30.0]];[0, 0, 0, 1, 0, 0, 0, 0];68.0;2.0;2.0;0.0;1.0;8.0;1.0;44.0;45.0;1.0
46;0;1;4;13;0;12.0;test_search;46.0;0.8325238;1.0;right;[631.0, -60.0];[35.0, 30.0];1.0;[-305.0, 73.0];[35.0, 30.0];0.0;[[-644.0, -309.0], [-312.0, -293.0], [454.0, 58.0], [633.0, -188.0]];[[35.0, 30.0], [35.0, 30.0], [35.0, 30.0], [35.0, 30.0]];[1, 1, 0, 1];66.0;2.0;2.0;0.0;1.0;4.0;1.0;45.0;46.0;1.0
47;0;1;0;11;0;12.0;test_search;47.0;0.7170751;1.0;right;[-632.0, 292.0];[35.0, 30.0];1.0;[304.0, 50.0];[35.0, 30.0];1.0;[];[];[];62.0;2.0;2.0;0.0;1.0;0.0;1.0;46.0;47.0;1.0
48;1;0;0;6;0;12.0;test_search;48.0;0.7217845;1.0;left;[462.0, -56.0];[35.0, 30.0];0.0;[-468.0, 296.0];[35.0, 30.0];0.0;[];[];[];51.0;2.0;2.0;1.0;0.0;0.0;1.0;47.0;48.0;1.0
49;1;1;16;20;0;12.0;test_search;49.0;0.858921;1.0;right;[-470.0, -71.0];[35.0, 30.0];1.0;[464.0, -182.0];[35.0, 30.0];1.0;[[-636.0, -293.0], [-626.0, -60.0], [-618.0, 174.0], [-459.0, -308.0], [-479.0, 69.0], [-463.0, 192.0], [-308.0, -286.0], [-314.0, -72.0], [314.0, -297.0], [292.0, -174.0], [299.0, -63.0], [293.0, 173.0], [473.0, -52.0], [627.0, -190.0], [619.0, 70.0], [642.0, 166.0]];[[35.0, 30.0], [35.0, 30.0], [35.0, 30.0], [35.0, 30.0], [35.0, 30.0], [35.0, 30.0], [35.0, 30.0], [35.0, 30.0], [35.0, 30.0], [35.0, 30.0], [35.0, 30.0], [35.0, 30.0], [35.0, 30.0], [35.0, 30.0], [35.0, 30.0], [35.0, 30.0]];[0, 1, 0, 1, 0, 0, 1, 0, 0, 1, 1, 1, 0, 0, 1, 0];80.0;2.0;2.0;1.0;1.0;16.0;1.0;48.0;49.0;1.0
50;1;1;2;17;0;12.0;test_search;50.0;0.8893619;1.0;right;[-627.0, 311.0];[35.0, 30.0];1.0;[620.0, 186.0];[35.0, 30.0];1.0;[[-309.0, -52.0], [469.0, -55.0]];[[35.0, 30.0], [35.0, 30.0]];[0, 1];74.0;2.0;2.0;1.0;1.0;2.0;1.0;49.0;50.0;1.0
51;0;0;0;1;0;12.0;test_search;51.0;0.672455;1.0;left;[-475.0, -190.0];[35.0, 30.0];0.0;[629.0, 297.0];[35.0, 30.0];0.0;[];[];[];41.0;2.0;2.0;0.0;0.0;0.0;1.0;50.0;51.0;1.0
52;1;1;4;18;0;12.0;test_search;52.0;0.5991465;1.0;right;[-315.0, 59.0];[35.0, 30.0];1.0;[630.0, -168.0];[35.0, 30.0];0.0;[[-617.0, -297.0], [-468.0, 194.0], [313.0, 74.0], [637.0, 62.0]];[[35.0, 30.0], [35.0, 30.0], [35.0, 30.0], [35.0, 30.0]];[0, 1, 0, 0];76.0;2.0;2.0;1.0;1.0;4.0;1.0;51.0;52.0;1.0
53;0;1;16;15;0;12.0;test_search;53.0;0.8997212;1.0;right;[-315.0, 311.0];[35.0, 30.0];1.0;[477.0, 193.0];[35.0, 30.0];1.0;[[-628.0, -302.0], [-619.0, -74.0], [-627.0, 305.0], [-475.0, -306.0], [-460.0, 295.0], [-297.0, -312.0], [-298.0, 60.0], [-300.0, 186.0], [307.0, -306.0], [300.0, -189.0], [302.0, 307.0], [469.0, -55.0], [474.0, 69.0], [472.0, 306.0], [638.0, -182.0], [618.0, 48.0]];[[35.0, 30.0], [35.0, 30.0], [35.0, 30.0], [35.0, 30.0], [35.0, 30.0], [35.0, 30.0], [35.0, 30.0], [35.0, 30.0], [35.0, 30.0], [35.0, 30.0], [35.0, 30.0], [35.0, 30.0], [35.0, 30.0], [35.0, 30.0], [35.0, 30.0], [35.0, 30.0]];[0, 1, 0, 0, 1, 0, 1, 0, 1, 0, 1, 1, 0, 1, 1, 1];70.0;2.0;2.0;0.0;1.0;16.0;1.0;52.0;53.0;1.0
54;0;0;2;2;0;12.0;test_search;54.0;0.7934903;1.0;left;[630.0, -291.0];[35.0, 30.0];0.0;[-454.0, -297.0];[35.0, 30.0];1.0;[[-455.0, -70.0], [479.0, 174.0]];[[35.0, 30.0], [35.0, 30.0]];[1, 0];43.0;2.0;2.0;0.0;0.0;2.0;1.0;53.0;54.0;1.0
55;1;0;4;8;0;12.0;test_search;55.0;0.8208508;1.0;left;[-471.0, -293.0];[35.0, 30.0];0.0;[623.0, 302.0];[35.0, 30.0];1.0;[[-455.0, 310.0], [-305.0, 187.0], [619.0, -175.0], [624.0, -48.0]];[[35.0, 30.0], [35.0, 30.0], [35.0, 30.0], [35.0, 30.0]];[1, 0, 0, 1];55.0;2.0;2.0;1.0;0.0;4.0;1.0;54.0;55.0;1.0
56;0;0;16;5;0;12.0;test_search;56.0;0.8154978;1.0;left;[-624.0, 169.0];[35.0, 30.0];0.0;[298.0, 192.0];[35.0, 30.0];1.0;[[-623.0, -295.0], [-616.0, -171.0], [-629.0, -58.0], [-645.0, 71.0], [-473.0, 68.0], [-299.0, -308.0], [-311.0, 177.0], [-313.0, 300.0], [310.0, -297.0], [300.0, -187.0], [285.0, 54.0], [453.0, 45.0], [617.0, -182.0], [619.0, -47.0], [616.0, 165.0], [616.0, 312.0]];[[35.0, 30.0], [35.0, 30.0], [35.0, 30.0], [35.0, 30.0], [35.0, 30.0], [35.0, 30.0], [35.0, 30.0], [35.0, 30.0], [35.0, 30.0], [35.0, 30.0], [35.0, 30.0], [35.0, 30.0], [35.0, 30.0], [35.0, 30.0], [35.0, 30.0], [35.0, 30.0]];[0, 0, 0, 1, 0, 1, 1, 1, 1, 1, 1, 0, 1, 0, 1, 0];49.0;2.0;2.0;0.0;0.0;16.0;1.0;55.0;56.0;1.0
57;1;0;16;10;0;12.0;test_search;57.0;0.7529833;1.0;left;[-286.0, 311.0];[35.0, 30.0];0.0;[630.0, 45.0];[35.0, 30.0];1.0;[[-640.0, -173.0], [-617.0, 302.0], [-473.0, -186.0], [-468.0, 54.0], [-451.0, 286.0], [-288.0, -315.0], [-315.0, -194.0], [-308.0, -65.0], [289.0, -304.0], [288.0, -67.0], [300.0, 296.0], [478.0, -63.0], [459.0, 72.0], [455.0, 308.0], [631.0, -49.0], [628.0, 187.0]];[[35.0, 30.0], [35.0, 30.0], [35.0, 30.0], [35.0, 30.0], [35.0, 30.0], [35.0, 30.0], [35.0, 30.0], [35.0, 30.0], [35.0, 30.0], [35.0, 30.0], [35.0, 30.0], [35.0, 30.0], [35.0, 30.0], [35.0, 30.0], [35.0, 30.0], [35.0, 30.0]];[1, 0, 0, 0, 0, 1, 1, 0, 0, 0, 0, 0, 0, 1, 0, 0];59.0;2.0;2.0;1.0;0.0;16.0;1.0;56.0;57.0;1.0
58;0;1;2;12;0;12.0;test_search;58.0;0.8363379;1.0;right;[619.0, -69.0];[35.0, 30.0];1.0;[-288.0, -52.0];[35.0, 30.0];1.0;[[-456.0, 61.0], [628.0, -177.0]];[[35.0, 30.0], [35.0, 30.0]];[0, 0];64.0;2.0;2.0;0.0;1.0;2.0;1.0;57.0;58.0;1.0
59;1;1;0;16;0;12.0;test_search;59.0;0.6598298;1.0;right;[-308.0, -177.0];[35.0, 30.0];1.0;[309.0, -166.0];[35.0, 30.0];1.0;[];[];[];72.0;2.0;2.0;1.0;1.0;0.0;1.0;58.0;59.0;1.0
60;0;0;4;3;0;12.0;test_search;60.0;0.7863641;1.0;left;[-460.0, -56.0];[35.0, 30.0];0.0;[461.0, 191.0];[35.0, 30.0];0.0;[[-644.0, 296.0], [-305.0, 58.0], [298.0, 314.0], [631.0, 61.0]];[[35.0, 30.0], [35.0, 30.0], [35.0, 30.0], [35.0, 30.0]];[1, 1, 0, 0];45.0;2.0;2.0;0.0;0.0;4.0;1.0;59.0;60.0;1.0
61;1;0;2;7;0;12.0;test_search;61.0;0.8722679;1.0;left;[616.0, -304.0];[35.0, 30.0];1.0;[-626.0, -296.0];[35.0, 30.0];0.0;[[-304.0, 45.0], [293.0, 54.0]];[[35.0, 30.0], [35.0, 30.0]];[0, 1];54.0;3.0;3.0;1.0;0.0;2.0;1.0;60.0;1.0;2.0
62;0;0;16;5;0;12.0;test_search;62.0;1.2635652;1.0;left;[-618.0, 184.0];[35.0, 30.0];1.0;[629.0, 63.0];[35.0, 30.0];1.0;[[-641.0, -314.0], [-622.0, -181.0], [-628.0, -58.0], [-451.0, -295.0], [-455.0, -191.0], [-477.0, -48.0], [-470.0, 55.0], [-290.0, 182.0], [285.0, -296.0], [286.0, 172.0], [308.0, 302.0], [465.0, -287.0], [467.0, 66.0], [463.0, 170.0], [624.0, -309.0], [625.0, 177.0]];[[35.0, 30.0], [35.0, 30.0], [35.0, 30.0], [35.0, 30.0], [35.0, 30.0], [35.0, 30.0], [35.0, 30.0], [35.0, 30.0], [35.0, 30.0], [35.0, 30.0], [35.0, 30.0], [35.0, 30.0], [35.0, 30.0], [35.0, 30.0], [35.0, 30.0], [35.0, 30.0]];[0, 1, 0, 1, 0, 0, 0, 1, 1, 0, 1, 1, 1, 1, 1, 1];50.0;3.0;3.0;0.0;0.0;16.0;1.0;61.0;2.0;2.0
63;0;1;4;13;0;12.0;test_search;63.0;0.8725172;1.0;right;[-637.0, 181.0];[35.0, 30.0];0.0;[296.0, -179.0];[35.0, 30.0];1.0;[[-471.0, 72.0], [-291.0, 72.0], [304.0, -59.0], [632.0, 64.0]];[[35.0, 30.0], [35.0, 30.0], [35.0, 30.0], [35.0, 30.0]];[0, 0, 0, 0];65.0;3.0;3.0;0.0;1.0;4.0;1.0;62.0;3.0;2.0
64;0;0;8;4;0;12.0;test_search;64.0;1.1679294;1.0;left;[450.0, 297.0];[35.0, 30.0];1.0;[-314.0, 285.0];[35.0, 30.0];1.0;[[-471.0, -186.0], [-461.0, -61.0], [-309.0, -309.0], [-314.0, 63.0], [287.0, 305.0], [463.0, -67.0], [631.0, -303.0], [627.0, 165.0]];[[35.0, 30.0], [35.0, 30.0], [35.0, 30.0], [35.0, 30.0], [35.0, 30.0], [35.0, 30.0], [35.0, 30.0], [35.0, 30.0]];[0, 0, 1, 1, 1, 1, 0, 1];48.0;3.0;3.0;0.0;0.0;8.0;1.0;63.0;4.0;2.0
65;0;0;4;3;0;12.0;test_search;65.0;0.9191849;1.0;left;[618.0, -290.0];[35.0, 30.0];1.0;[-621.0, 308.0];[35.0, 30.0];0.0;[[-623.0, -189.0], [-643.0, -71.0], [311.0, 301.0], [475.0, -57.0]];[[35.0, 30.0], [35.0, 30.0], [35.0, 30.0], [35.0, 30.0]];[0, 0, 0, 1];46.0;3.0;3.0;0.0;0.0;4.0;1.0;64.0;5.0;2.0
66;0;1;0;11;0;12.0;test_search;66.0;0.6761666;1.0;right;[-458.0, 186.0];[35.0, 30.0];0.0;[638.0, -181.0];[35.0, 30.0];1.0;[];[];[];61.0;3.0;3.0;0.0;1.0;0.0;1.0;65.0;6.0;2.0
67;1;0;16;10;0;12.0;test_search;67.0;0.9780144;1.0;left;[302.0, 302.0];[35.0, 30.0];1.0;[-471.0, -303.0];[35.0, 30.0];0.0;[[-625.0, -291.0], [-466.0, -75.0], [-451.0, 51.0], [-460.0, 183.0], [-472.0, 308.0], [-288.0, -294.0], [-298.0, 178.0], [-307.0, 301.0], [285.0, 71.0], [304.0, 165.0], [479.0, -314.0], [476.0, 175.0], [466.0, 296.0], [620.0, -293.0], [626.0, 52.0], [644.0, 294.0]];[[35.0, 30.0], [35.0, 30.0], [35.0, 30.0], [35.0, 30.0], [35.0, 30.0], [35.0, 30.0], [35.0, 30.0], [35.0, 30.0], [35.0, 30.0], [35.0, 30.0], [35.0, 30.0], [35.0, 30.0], [35.0, 30.0], [35.0, 30.0], [35.0, 30.0], [35.0, 30.0]];[1, 1, 0, 1, 1, 1, 0, 1, 1, 0, 1, 1, 1, 0, 1, 0];60.0;3.0;3.0;1.0;0.0;16.0;1.0;66.0;7.0;2.0
68;1;1;2;17;0;12.0;test_search;68.0;0.7020195;1.0;right;[-297.0, -48.0];[35.0, 30.0];0.0;[621.0, 172.0];[35.0, 30.0];1.0;[[-290.0, 67.0], [616.0, -60.0]];[[35.0, 30.0], [35.0, 30.0]];[1, 1];73.0;3.0;3.0;1.0;1.0;2.0;1.0;67.0;8.0;2.0
69;0;1;8;14;0;12.0;test_search;69.0;0.7876179;1.0;right;[464.0, 191.0];[35.0, 30.0];0.0;[-289.0, 287.0];[35.0, 30.0];0.0;[[-632.0, -58.0], [-464.0, -194.0], [-479.0, 298.0], [-294.0, 54.0], [294.0, -286.0], [291.0, 285.0], [633.0, -57.0], [618.0, 55.0]];[[35.0, 30.0], [35.0, 30.0], [35.0, 30.0], [35.0, 30.0], [35.0, 30.0], [35.0, 30.0], [35.0, 30.0], [35.0, 30.0]];[1, 0, 1, 1, 0, 1, 1, 0];67.0;3.0;3.0;0.0;1.0;8.0;1.0;68.0;9.0;2.0
70;1;1;4;18;0;12.0;test_search;70.0;1.1558384;1.0;right;[641.0, 289.0];[35.0, 30.0];0.0;[-302.0, -63.0];[35.0, 30.0];0.0;[[-626.0, -291.0], [-460.0, -59.0], [298.0, 314.0], [468.0, 300.0]];[[35.0, 30.0], [35.0, 30.0], [35.0, 30.0], [35.0, 30.0]];[1, 1, 1, 0];75.0;3.0;3.0;1.0;1.0;4.0;1.0;69.0;10.0;2.0
71;0;1;2;12;0;12.0;test_search;71.0;0.6936901;1.0;right;[311.0, -289.0];[35.0, 30.0];0.0;[-476.0, -297.0];[35.0, 30.0];1.0;[[-479.0, -186.0], [308.0, -183.0]];[[35.0, 30.0], [35.0, 30.0]];[1, 0];63.0;3.0;3.0;0.0;1.0;2.0;1.0;70.0;11.0;2.0
72;0;0;2;2;0;12.0;test_search;72.0;0.7011365;1.0;left;[467.0, -74.0];[35.0, 30.0];1.0;[-470.0, -287.0];[35.0, 30.0];0.0;[[-475.0, 312.0], [474.0, -187.0]];[[35.0, 30.0], [35.0, 30.0]];[1, 0];44.0;3.0;3.0;0.0;0.0;2.0;1.0;71.0;12.0;2.0
73;0;1;16;15;0;12.0;test_search;73.0;0.7176358;1.0;right;[450.0, -46.0];[35.0, 30.0];0.0;[-622.0, 59.0];[35.0, 30.0];1.0;[[-634.0, -290.0], [-477.0, -292.0], [-475.0, 48.0], [-462.0, 184.0], [-305.0, -305.0], [-298.0, -57.0], [-291.0, 71.0], [-303.0, 193.0], [306.0, -314.0], [310.0, -193.0], [292.0, -63.0], [303.0, 71.0], [297.0, 179.0], [468.0, 168.0], [471.0, 294.0], [638.0, -187.0]];[[35.0, 30.0], [35.0, 30.0], [35.0, 30.0], [35.0, 30.0], [35.0, 30.0], [35.0, 30.0], [35.0, 30.0], [35.0, 30.0], [35.0, 30.0], [35.0, 30.0], [35.0, 30.0], [35.0, 30.0], [35.0, 30.0], [35.0, 30.0], [35.0, 30.0], [35.0, 30.0]];[0, 1, 0, 1, 1, 0, 0, 1, 0, 1, 0, 0, 1, 1, 0, 1];69.0;3.0;3.0;0.0;1.0;16.0;1.0;72.0;13.0;2.0
74;1;1;0;16;0;12.0;test_search;74.0;0.7170443;1.0;right;[-637.0, -60.0];[35.0, 30.0];0.0;[477.0, 174.0];[35.0, 30.0];0.0;[];[];[];71.0;3.0;3.0;1.0;1.0;0.0;1.0;73.0;14.0;2.0
75;1;1;16;20;0;12.0;test_search;75.0;0.8032328;1.0;right;[-465.0, -297.0];[35.0, 30.0];0.0;[633.0, 55.0];[35.0, 30.0];0.0;[[-616.0, 62.0], [-619.0, 183.0], [-645.0, 291.0], [-463.0, -46.0], [-456.0, 190.0], [-457.0, 298.0], [-304.0, -298.0], [-291.0, 73.0], [303.0, -298.0], [310.0, -167.0], [302.0, -53.0], [455.0, -175.0], [474.0, -62.0], [454.0, 63.0], [617.0, -55.0], [632.0, 177.0]];[[35.0, 30.0], [35.0, 30.0], [35.0, 30.0], [35.0, 30.0], [35.0, 30.0], [35.0, 30.0], [35.0, 30.0], [35.0, 30.0], [35.0, 30.0], [35.0, 30.0], [35.0, 30.0], [35.0, 30.0], [35.0, 30.0], [35.0, 30.0], [35.0, 30.0], [35.0, 30.0]];[1, 1, 0, 0, 0, 0, 0, 1, 0, 1, 0, 1, 0, 1, 0, 0];79.0;3.0;3.0;1.0;1.0;16.0;1.0;74.0;15.0;2.0
76;1;1;8;19;0;12.0;test_search;76.0;0.9492975;1.0;right;[631.0, 175.0];[35.0, 30.0];0.0;[-297.0, -62.0];[35.0, 30.0];1.0;[[-467.0, -305.0], [-453.0, -64.0], [-468.0, 310.0], [-314.0, 178.0], [293.0, 165.0], [455.0, -170.0], [461.0, -74.0], [637.0, -183.0]];[[35.0, 30.0], [35.0, 30.0], [35.0, 30.0], [35.0, 30.0], [35.0, 30.0], [35.0, 30.0], [35.0, 30.0], [35.0, 30.0]];[0, 0, 1, 1, 1, 1, 0, 1];77.0;3.0;3.0;1.0;1.0;8.0;1.0;75.0;16.0;2.0
77;1;0;4;8;0;12.0;test_search;77.0;0.929258;1.0;left;[299.0, 311.0];[35.0, 30.0];1.0;[-314.0, -172.0];[35.0, 30.0];0.0;[[-634.0, -170.0], [-475.0, 65.0], [299.0, 169.0], [456.0, -193.0]];[[35.0, 30.0], [35.0, 30.0], [35.0, 30.0], [35.0, 30.0]];[1, 1, 1, 0];56.0;3.0;3.0;1.0;0.0;4.0;1.0;76.0;17.0;2.0
78;1;0;8;9;0;12.0;test_search;78.0;0.8195379;1.0;left;[627.0, 56.0];[35.0, 30.0];1.0;[-299.0, 166.0];[35.0, 30.0];0.0;[[-626.0, 60.0], [-626.0, 177.0], [-300.0, -193.0], [-290.0, -49.0], [310.0, -187.0], [466.0, -70.0], [624.0, -299.0], [624.0, -52.0]];[[35.0, 30.0], [35.0, 30.0], [35.0, 30.0], [35.0, 30.0], [35.0, 30.0], [35.0, 30.0], [35.0, 30.0], [35.0, 30.0]];[1, 0, 1, 0, 1, 0, 1, 0];58.0;3.0;3.0;1.0;0.0;8.0;1.0;77.0;18.0;2.0
79;0;0;0;1;0;12.0;test_search;79.0;0.7411867;1.0;left;[-638.0, -307.0];[35.0, 30.0];1.0;[454.0, 192.0];[35.0, 30.0];0.0;[];[];[];42.0;3.0;3.0;0.0;0.0;0.0;1.0;78.0;19.0;2.0
80;1;0;0;6;0;12.0;test_search;80.0;0.7225778;1.0;left;[631.0, 301.0];[35.0, 30.0];1.0;[-307.0, -289.0];[35.0, 30.0];0.0;[];[];[];52.0;3.0;3.0;1.0;0.0;0.0;1.0;79.0;20.0;2.0
81;0;0;4;3;0;12.0;test_search;81.0;0.8978966;1.0;left;[-476.0, 175.0];[35.0, 30.0];0.0;[307.0, -291.0];[35.0, 30.0];1.0;[[-456.0, 52.0], [-292.0, 68.0], [298.0, -178.0], [294.0, 181.0]];[[35.0, 30.0], [35.0, 30.0], [35.0, 30.0], [35.0, 30.0]];[1, 0, 1, 0];85.0;4.0;4.0;0.0;0.0;4.0;1.0;80.0;21.0;2.0
82;0;1;4;13;0;12.0;test_search;82.0;0.7331614;1.0;right;[-620.0, 184.0];[35.0, 30.0];1.0;[636.0, -63.0];[35.0, 30.0];0.0;[[-478.0, -170.0], [-303.0, 182.0], [454.0, -68.0], [478.0, 287.0]];[[35.0, 30.0], [35.0, 30.0], [35.0, 30.0], [35.0, 30.0]];[1, 1, 1, 0];106.0;4.0;4.0;0.0;1.0;4.0;1.0;81.0;22.0;2.0
83;1;0;8;9;0;12.0;test_search;83.0;0.8697483;1.0;left;[471.0, 72.0];[35.0, 30.0];0.0;[-622.0, 64.0];[35.0, 30.0];1.0;[[-643.0, -308.0], [-641.0, 290.0], [-457.0, 65.0], [-308.0, -61.0], [302.0, -300.0], [304.0, 191.0], [296.0, 287.0], [643.0, -304.0]];[[35.0, 30.0], [35.0, 30.0], [35.0, 30.0], [35.0, 30.0], [35.0, 30.0], [35.0, 30.0], [35.0, 30.0], [35.0, 30.0]];[0, 1, 1, 0, 0, 0, 1, 0];97.0;4.0;4.0;1.0;0.0;8.0;1.0;82.0;23.0;2.0
84;1;1;16;20;0;12.0;test_search;84.0;0.7343394;1.0;right;[-456.0, 190.0];[35.0, 30.0];1.0;[302.0, 170.0];[35.0, 30.0];1.0;[[-622.0, -311.0], [-624.0, -190.0], [-643.0, -52.0], [-451.0, -171.0], [-452.0, -58.0], [-292.0, -313.0], [-305.0, -187.0], [-292.0, 303.0], [290.0, -314.0], [305.0, -187.0], [294.0, -74.0], [452.0, 65.0], [632.0, -178.0], [641.0, 68.0], [621.0, 192.0], [626.0, 287.0]];[[35.0, 30.0], [35.0, 30.0], [35.0, 30.0], [35.0, 30.0], [35.0, 30.0], [35.0, 30.0], [35.0, 30.0], [35.0, 30.0], [35.0, 30.0], [35.0, 30.0], [35.0, 30.0], [35.0, 30.0], [35.0, 30.0], [35.0, 30.0], [35.0, 30.0], [35.0, 30.0]];[1, 1, 0, 1, 1, 1, 0, 1, 1, 1, 0, 0, 1, 1, 0, 1];120.0;4.0;4.0;1.0;1.0;16.0;1.0;83.0;24.0;2.0
85;1;0;16;10;0;12.0;test_search;85.0;1.0119718;1.0;left;[302.0, -179.0];[35.0, 30.0];0.0;[-292.0, -296.0];[35.0, 30.0];1.0;[[-619.0, -304.0], [-627.0, -188.0], [-643.0, 176.0], [-469.0, -293.0], [-298.0, -188.0], [-310.0, -74.0], [-301.0, 62.0], [-298.0, 165.0], [289.0, -287.0], [305.0, -68.0], [289.0, 308.0], [474.0, -50.0], [475.0, 186.0], [628.0, -180.0], [617.0, 69.0], [615.0, 179.0]];[[35.0, 30.0], [35.0, 30.0], [35.0, 30.0], [35.0, 30.0], [35.0, 30.0], [35.0, 30.0], [35.0, 30.0], [35.0, 30.0], [35.0, 30.0], [35.0, 30.0], [35.0, 30.0], [35.0, 30.0], [35.0, 30.0], [35.0, 30.0], [35.0, 30.0], [35.0, 30.0]];[1, 0, 1, 0, 0, 1, 0, 1, 0, 0, 0, 0, 0, 1, 1, 0];99.0;4.0;4.0;1.0;0.0;16.0;1.0;84.0;25.0;2.0
86;1;0;4;8;0;12.0;test_search;86.0;0.7024005;1.0;left;[-470.0, 181.0];[35.0, 30.0];0.0;[450.0, 51.0];[35.0, 30.0];1.0;[[-628.0, 47.0], [-644.0, 175.0], [479.0, -314.0], [621.0, -314.0]];[[35.0, 30.0], [35.0, 30.0], [35.0, 30.0], [35.0, 30.0]];[1, 0, 0, 0];95.0;4.0;4.0;1.0;0.0;4.0;1.0;85.0;26.0;2.0
87;0;0;0;1;0;12.0;test_search;87.0;0.6138774;1.0;left;[-289.0, 58.0];[35.0, 30.0];0.0;[642.0, 58.0];[35.0, 30.0];1.0;[];[];[];81.0;4.0;4.0;0.0;0.0;0.0;1.0;86.0;27.0;2.0
88;0;0;16;5;0;12.0;test_search;88.0;0.7899803;1.0;left;[294.0, -55.0];[35.0, 30.0];0.0;[-452.0, -194.0];[35.0, 30.0];0.0;[[-619.0, -56.0], [-623.0, 287.0], [-480.0, -53.0], [-457.0, 174.0], [-458.0, 309.0], [-315.0, -308.0], [-298.0, 51.0], [-315.0, 292.0], [308.0, -294.0], [296.0, -185.0], [459.0, -308.0], [454.0, -57.0], [461.0, 67.0], [469.0, 190.0], [639.0, 179.0], [634.0, 289.0]];[[35.0, 30.0], [35.0, 30.0], [35.0, 30.0], [35.0, 30.0], [35.0, 30.0], [35.0, 30.0], [35.0, 30.0], [35.0, 30.0], [35.0, 30.0], [35.0, 30.0], [35.0, 30.0], [35.0, 30.0], [35.0, 30.0], [35.0, 30.0], [35.0, 30.0], [35.0, 30.0]];[1, 1, 0, 1, 1, 0, 1, 1, 0, 1, 1, 0, 0, 1, 1, 0];89.0;4.0;4.0;0.0;0.0;16.0;1.0;87.0;28.0;2.0
89;0;0;2;2;0;12.0;test_search;89.0;0.6735765;1.0;left;[-469.0, 55.0];[35.0, 30.0];0.0;[301.0, -301.0];[35.0, 30.0];1.0;[[-457.0, -311.0], [621.0, 166.0]];[[35.0, 30.0], [35.0, 30.0]];[1, 1];83.0;4.0;4.0;0.0;0.0;2.0;1.0;88.0;29.0;2.0
90;0;1;2;12;0;12.0;test_search;90.0;0.6983027;1.0;right;[-642.0, -70.0];[35.0, 30.0];1.0;[619.0, 309.0];[35.0, 30.0];1.0;[[-465.0, -297.0], [468.0, 312.0]];[[35.0, 30.0], [35.0, 30.0]];[0, 0];104.0;4.0;4.0;0.0;1.0;2.0;1.0;89.0;30.0;2.0
91;1;1;0;16;0;12.0;test_search;91.0;0.6613904;1.0;right;[-463.0, 291.0];[35.0, 30.0];1.0;[306.0, -293.0];[35.0, 30.0];1.0;[];[];[];112.0;4.0;4.0;1.0;1.0;0.0;1.0;90.0;31.0;2.0
92;1;0;2;7;0;12.0;test_search;92.0;0.8591239;1.0;left;[468.0, -304.0];[35.0, 30.0];0.0;[-467.0, -306.0];[35.0, 30.0];1.0;[[-627.0, 289.0], [453.0, -47.0]];[[35.0, 30.0], [35.0, 30.0]];[0, 0];93.0;4.0;4.0;1.0;0.0;2.0;1.0;91.0;32.0;2.0
93;1;1;8;19;0;12.0;test_search;93.0;0.8253473;1.0;right;[-314.0, -63.0];[35.0, 30.0];1.0;[468.0, 188.0];[35.0, 30.0];1.0;[[-617.0, 290.0], [-314.0, -170.0], [-308.0, 62.0], [-295.0, 179.0], [291.0, 67.0], [461.0, -314.0], [624.0, -62.0], [640.0, 175.0]];[[35.0, 30.0], [35.0, 30.0], [35.0, 30.0], [35.0, 30.0], [35.0, 30.0], [35.0, 30.0], [35.0, 30.0], [35.0, 30.0]];[0, 1, 0, 0, 0, 0, 0, 1];118.0;4.0;4.0;1.0;1.0;8.0;1.0;92.0;33.0;2.0
94;0;1;8;14;0;12.0;test_search;94.0;0.8086284;1.0;right;[626.0, 192.0];[35.0, 30.0];1.0;[-638.0, 61.0];[35.0, 30.0];0.0;[[-621.0, -195.0], [-644.0, 166.0], [-464.0, 61.0], [-451.0, 291.0], [301.0, -286.0], [304.0, -59.0], [639.0, -190.0], [617.0, -57.0]];[[35.0, 30.0], [35.0, 30.0], [35.0, 30.0], [35.0, 30.0], [35.0, 30.0], [35.0, 30.0], [35.0, 30.0], [35.0, 30.0]];[1, 1, 1, 1, 1, 1, 0, 1];108.0;4.0;4.0;0.0;1.0;8.0;1.0;93.0;34.0;2.0
95;0;1;16;15;0;12.0;test_search;95.0;1.0681545;1.0;right;[-466.0, 166.0];[35.0, 30.0];1.0;[475.0, -62.0];[35.0, 30.0];0.0;[[-619.0, -177.0], [-457.0, -292.0], [-479.0, -60.0], [-459.0, 66.0], [-480.0, 310.0], [-289.0, -302.0], [-296.0, -181.0], [-305.0, -53.0], [287.0, -178.0], [290.0, -67.0], [456.0, 66.0], [461.0, 179.0], [627.0, -178.0], [619.0, -63.0], [643.0, 56.0], [633.0, 172.0]];[[35.0, 30.0], [35.0, 30.0], [35.0, 30.0], [35.0, 30.0], [35.0, 30.0], [35.0, 30.0], [35.0, 30.0], [35.0, 30.0], [35.0, 30.0], [35.0, 30.0], [35.0, 30.0], [35.0, 30.0], [35.0, 30.0], [35.0, 30.0], [35.0, 30.0], [35.0, 30.0]];[1, 0, 1, 1, 0, 0, 1, 1, 0, 1, 0, 1, 1, 0, 0, 1];110.0;4.0;4.0;0.0;1.0;16.0;1.0;94.0;35.0;2.0
96;1;1;2;17;0;12.0;test_search;96.0;0.8102824;1.0;right;[-477.0, -286.0];[35.0, 30.0];1.0;[314.0, 50.0];[35.0, 30.0];0.0;[[-624.0, 312.0], [309.0, -299.0]];[[35.0, 30.0], [35.0, 30.0]];[1, 1];114.0;4.0;4.0;1.0;1.0;2.0;1.0;95.0;36.0;2.0
97;1;1;4;18;0;12.0;test_search;97.0;0.7497378;1.0;right;[-622.0, -51.0];[35.0, 30.0];1.0;[465.0, 176.0];[35.0, 30.0];1.0;[[-634.0, 69.0], [-303.0, -180.0], [311.0, -170.0], [455.0, -174.0]];[[35.0, 30.0], [35.0, 30.0], [35.0, 30.0], [35.0, 30.0]];[1, 0, 0, 1];116.0;4.0;4.0;1.0;1.0;4.0;1.0;96.0;37.0;2.0
98;1;0;0;6;0;12.0;test_search;98.0;0.89159;1.0;left;[617.0, -303.0];[35.0, 30.0];0.0;[-637.0, 165.0];[35.0, 30.0];0.0;[];[];[];91.0;4.0;4.0;1.0;0.0;0.0;1.0;97.0;38.0;2.0
99;0;1;0;11;0;12.0;test_search;99.0;0.649359;1.0;right;[456.0, -62.0];[35.0, 30.0];1.0;[-294.0, 191.0];[35.0, 30.0];1.0;[];[];[];102.0;4.0;4.0;0.0;1.0;0.0;1.0;98.0;39.0;2.0
100;0;0;8;4;0;12.0;test_search;100.0;0.9373014;1.0;left;[468.0, 188.0];[35.0, 30.0];0.0;[-454.0, 190.0];[35.0, 30.0];1.0;[[-454.0, -309.0], [-469.0, -182.0], [-470.0, -66.0], [-287.0, -46.0], [300.0, -172.0], [296.0, -60.0], [631.0, -175.0], [641.0, 56.0]];[[35.0, 30.0], [35.0, 30.0], [35.0, 30.0], [35.0, 30.0], [35.0, 30.0], [35.0, 30.0], [35.0, 30.0], [35.0, 30.0]];[0, 0, 1, 1, 1, 1, 0, 0];87.0;4.0;4.0;0.0;0.0;8.0;1.0;99.0;40.0;2.0
101;0;1;2;12;0;12.0;test_search;101.0;0.6288593;1.0;right;[314.0, 193.0];[35.0, 30.0];0.0;[-286.0, -315.0];[35.0, 30.0];1.0;[[-462.0, 52.0], [299.0, 310.0]];[[35.0, 30.0], [35.0, 30.0]];[1, 1];103.0;5.0;5.0;0.0;1.0;2.0;1.0;100.0;41.0;2.0
102;1;1;16;20;0;12.0;test_search;102.0;0.9149494;1.0;right;[637.0, 181.0];[35.0, 30.0];0.0;[-634.0, -182.0];[35.0, 30.0];0.0;[[-638.0, -312.0], [-625.0, 48.0], [-635.0, 191.0], [-617.0, 285.0], [-453.0, 70.0], [-468.0, 314.0], [-308.0, -50.0], [-288.0, 45.0], [291.0, -298.0], [291.0, -177.0], [478.0, -73.0], [474.0, 46.0], [454.0, 191.0], [644.0, -293.0], [628.0, -185.0], [639.0, 66.0]];[[35.0, 30.0], [35.0, 30.0], [35.0, 30.0], [35.0, 30.0], [35.0, 30.0], [35.0, 30.0], [35.0, 30.0], [35.0, 30.0], [35.0, 30.0], [35.0, 30.0], [35.0, 30.0], [35.0, 30.0], [35.0, 30.0], [35.0, 30.0], [35.0, 30.0], [35.0, 30.0]];[1, 0, 0, 0, 0, 0, 1, 0, 0, 1, 0, 1, 1, 0, 0, 1];119.0;5.0;5.0;1.0;1.0;16.0;1.0;101.0;42.0;2.0
103;1;1;8;19;0;12.0;test_search;103.0;0.6375604;1.0;right;[459.0, -75.0];[35.0, 30.0];0.0;[-465.0, 307.0];[35.0, 30.0];0.0;[[-627.0, 179.0], [-457.0, -169.0], [-461.0, -72.0], [-286.0, -314.0], [475.0, -307.0], [454.0, -171.0], [644.0, -72.0], [629.0, 165.0]];[[35.0, 30.0], [35.0, 30.0], [35.0, 30.0], [35.0, 30.0], [35.0, 30.0], [35.0, 30.0], [35.0, 30.0], [35.0, 30.0]];[1, 1, 0, 1, 0, 1, 1, 1];117.0;5.0;5.0;1.0;1.0;8.0;1.0;102.0;43.0;2.0
104;0;0;4;3;0;12.0;test_search;104.0;0.7076331;1.0;left;[-308.0, 178.0];[35.0, 30.0];1.0;[639.0, -314.0];[35.0, 30.0];1.0;[[-632.0, -311.0], [-302.0, -287.0], [450.0, 305.0], [620.0, 193.0]];[[35.0, 30.0], [35.0, 30.0], [35.0, 30.0], [35.0, 30.0]];[1, 1, 0, 1];86.0;5.0;5.0;0.0;0.0;4.0;1.0;103.0;44.0;2.0
105;1;0;2;7;0;12.0;test_search;105.0;0.6351163;1.0;left;[462.0, 70.0];[35.0, 30.0];1.0;[-636.0, -195.0];[35.0, 30.0];1.0;[[-627.0, 303.0], [458.0, -307.0]];[[35.0, 30.0], [35.0, 30.0]];[1, 0];94.0;5.0;5.0;1.0;0.0;2.0;1.0;104.0;45.0;2.0
106;1;0;0;6;0;12.0;test_search;106.0;0.942662;1.0;left;[616.0, 57.0];[35.0, 30.0];1.0;[-645.0, 72.0];[35.0, 30.0];1.0;[];[];[];92.0;5.0;5.0;1.0;0.0;0.0;1.0;105.0;46.0;2.0
107;1;0;8;9;0;12.0;test_search;107.0;0.7293211;1.0;left;[297.0, -178.0];[35.0, 30.0];1.0;[-632.0, 287.0];[35.0, 30.0];0.0;[[-631.0, 190.0], [-464.0, -189.0], [-472.0, 66.0], [-298.0, 174.0], [458.0, -177.0], [451.0, -57.0], [643.0, -294.0], [621.0, -70.0]];[[35.0, 30.0], [35.0, 30.0], [35.0, 30.0], [35.0, 30.0], [35.0, 30.0], [35.0, 30.0], [35.0, 30.0], [35.0, 30.0]];[0, 0, 0, 0, 1, 1, 1, 0];98.0;5.0;5.0;1.0;0.0;8.0;1.0;106.0;47.0;2.0
108;1;0;4;8;0;12.0;test_search;108.0;0.9242769;1.0;left;[-627.0, -175.0];[35.0, 30.0];1.0;[296.0, 52.0];[35.0, 30.0];0.0;[[-637.0, 72.0], [-297.0, 73.0], [312.0, 188.0], [477.0, -62.0]];[[35.0, 30.0], [35.0, 30.0], [35.0, 30.0], [35.0, 30.0]];[0, 1, 0, 0];96.0;5.0;5.0;1.0;0.0;4.0;1.0;107.0;48.0;2.0
109;1;1;4;18;0;12.0;test_search;109.0;0.924408;1.0;right;[-640.0, 301.0];[35.0, 30.0];0.0;[631.0, -286.0];[35.0, 30.0];0.0;[[-642.0, -191.0], [-311.0, 52.0], [307.0, 166.0], [615.0, -59.0]];[[35.0, 30.0], [35.0, 30.0], [35.0, 30.0], [35.0, 30.0]];[1, 0, 0, 0];115.0;5.0;5.0;1.0;1.0;4.0;1.0;108.0;49.0;2.0
110;0;0;16;5;0;12.0;test_search;110.0;0.9261138;1.0;left;[461.0, -166.0];[35.0, 30.0];1.0;[-617.0, -48.0];[35.0, 30.0];1.0;[[-629.0, -302.0], [-633.0, -167.0], [-465.0, -189.0], [-475.0, 177.0], [-304.0, -177.0], [-308.0, -51.0], [-306.0, 72.0], [-298.0, 295.0], [286.0, -195.0], [285.0, -54.0], [478.0, -305.0], [479.0, 58.0], [621.0, -292.0], [631.0, -171.0], [629.0, -53.0], [629.0, 300.0]];[[35.0, 30.0], [35.0, 30.0], [35.0, 30.0], [35.0, 30.0], [35.0, 30.0], [35.0, 30.0], [35.0, 30.0], [35.0, 30.0], [35.0, 30.0], [35.0, 30.0], [35.0, 30.0], [35.0, 30.0], [35.0, 30.0], [35.0, 30.0], [35.0, 30.0], [35.0, 30.0]];[1, 0, 1, 1, 1, 0, 0, 1, 0, 0, 1, 1, 1, 0, 1, 0];90.0;5.0;5.0;0.0;0.0;16.0;1.0;109.0;50.0;2.0
111;0;0;2;2;0;12.0;test_search;111.0;0.7033396;1.0;left;[-632.0, 60.0];[35.0, 30.0];1.0;[639.0, 178.0];[35.0, 30.0];1.0;[[-626.0, -169.0], [294.0, 307.0]];[[35.0, 30.0], [35.0, 30.0]];[1, 1];84.0;5.0;5.0;0.0;0.0;2.0;1.0;110.0;51.0;2.0
112;0;0;0;1;0;12.0;test_search;112.0;0.5740991;1.0;left;[-471.0, -55.0];[35.0, 30.0];1.0;[472.0, -57.0];[35.0, 30.0];1.0;[];[];[];82.0;5.0;5.0;0.0;0.0;0.0;1.0;111.0;52.0;2.0
113;0;1;0;11;0;12.0;test_search;113.0;0.7062416;1.0;right;[-313.0, -68.0];[35.0, 30.0];0.0;[303.0, -291.0];[35.0, 30.0];0.0;[];[];[];101.0;5.0;5.0;0.0;1.0;0.0;1.0;112.0;53.0;2.0
114;1;0;16;10;0;12.0;test_search;114.0;0.9547954;1.0;left;[288.0, -60.0];[35.0, 30.0];1.0;[-460.0, -53.0];[35.0, 30.0];1.0;[[-622.0, -166.0], [-476.0, -299.0], [-480.0, 179.0], [-452.0, 287.0], [-292.0, -169.0], [-288.0, -58.0], [-303.0, 50.0], [-299.0, 303.0], [299.0, -299.0], [461.0, -193.0], [450.0, -61.0], [451.0, 58.0], [642.0, -180.0], [632.0, -62.0], [620.0, 166.0], [633.0, 303.0]];[[35.0, 30.0], [35.0, 30.0], [35.0, 30.0], [35.0, 30.0], [35.0, 30.0], [35.0, 30.0], [35.0, 30.0], [35.0, 30.0], [35.0, 30.0], [35.0, 30.0], [35.0, 30.0], [35.0, 30.0], [35.0, 30.0], [35.0, 30.0], [35.0, 30.0], [35.0, 30.0]];[1, 0, 0, 1, 1, 1, 1, 1, 0, 1, 1, 1, 0, 1, 1, 1];100.0;5.0;5.0;1.0;0.0;16.0;1.0;113.0;54.0;2.0
115;1;1;2;17;0;12.0;test_search;115.0;0.6269044;1.0;right;[-452.0, -50.0];[35.0, 30.0];0.0;[637.0, -173.0];[35.0, 30.0];0.0;[[-645.0, -303.0], [452.0, 291.0]];[[35.0, 30.0], [35.0, 30.0]];[1, 0];113.0;5.0;5.0;1.0;1.0;2.0;1.0;114.0;55.0;2.0
116;0;1;16;15;0;12.0;test_search;116.0;0.9196063;1.0;right;[479.0, 297.0];[35.0, 30.0];0.0;[-307.0, 304.0];[35.0, 30.0];1.0;[[-637.0, -307.0], [-645.0, 49.0], [-624.0, 285.0], [-472.0, -289.0], [-456.0, -191.0], [-469.0, 294.0], [-292.0, -294.0], [-288.0, 175.0], [304.0, -190.0], [309.0, -53.0], [289.0, 47.0], [314.0, 185.0], [304.0, 310.0], [459.0, -287.0], [628.0, -183.0], [636.0, 47.0]];[[35.0, 30.0], [35.0, 30.0], [35.0, 30.0], [35.0, 30.0], [35.0, 30.0], [35.0, 30.0], [35.0, 30.0], [35.0, 30.0], [35.0, 30.0], [35.0, 30.0], [35.0, 30.0], [35.0, 30.0], [35.0, 30.0], [35.0, 30.0], [35.0, 30.0], [35.0, 30.0]];[0, 0, 1, 0, 1, 1, 1, 1, 0, 0, 1, 1, 0, 1, 1, 1];109.0;5.0;5.0;0.0;1.0;16.0;1.0;115.0;56.0;2.0
117;1;1;0;16;0;12.0;test_search;117.0;0.7496086;1.0;right;[-617.0, 287.0];[35.0, 30.0];0.0;[625.0, 63.0];[35.0, 30.0];1.0;[];[];[];111.0;5.0;5.0;1.0;1.0;0.0;1.0;116.0;57.0;2.0
118;0;1;4;13;0;12.0;test_search;118.0;0.916586;1.0;right;[-302.0, -291.0];[35.0, 30.0];0.0;[286.0, 168.0];[35.0, 30.0];1.0;[[-465.0, -290.0], [-477.0, 63.0], [617.0, -310.0], [632.0, -66.0]];[[35.0, 30.0], [35.0, 30.0], [35.0, 30.0], [35.0, 30.0]];[1, 0, 1, 1];105.0;5.0;5.0;0.0;1.0;4.0;1.0;117.0;58.0;2.0
119;0;1;8;14;0;12.0;test_search;119.0;0.6842596;1.0;right;[308.0, -298.0];[35.0, 30.0];0.0;[-471.0, -57.0];[35.0, 30.0];0.0;[[-629.0, -194.0], [-640.0, 69.0], [-473.0, 180.0], [-289.0, 176.0], [301.0, 55.0], [289.0, 192.0], [292.0, 286.0], [469.0, -51.0]];[[35.0, 30.0], [35.0, 30.0], [35.0, 30.0], [35.0, 30.0], [35.0, 30.0], [35.0, 30.0], [35.0, 30.0], [35.0, 30.0]];[1, 0, 1, 0, 0, 0, 0, 1];107.0;5.0;5.0;0.0;1.0;8.0;1.0;118.0;59.0;2.0
120;0;0;8;4;0;12.0;test_search;120.0;0.832588;1.0;left;[-641.0, -56.0];[35.0, 30.0];1.0;[472.0, 74.0];[35.0, 30.0];0.0;[[-632.0, -187.0], [-624.0, 71.0], [-476.0, 194.0], [-289.0, 180.0], [310.0, -298.0], [285.0, -191.0], [292.0, 314.0], [462.0, 289.0]];[[35.0, 30.0], [35.0, 30.0], [35.0, 30.0], [35.0, 30.0], [35.0, 30.0], [35.0, 30.0], [35.0, 30.0], [35.0, 30.0]];[0, 1, 1, 0, 1, 1, 1, 1];88.0;5.0;5.0;0.0;0.0;8.0;1.0;119.0;60.0;2.0
121;0;1;8;14;0;12.0;test_search;121.0;1.5103439;1.0;right;[298.0, -171.0];[35.0, 30.0];1.0;[-298.0, 46.0];[35.0, 30.0];1.0;[[-465.0, -179.0], [-463.0, -47.0], [-294.0, -310.0], [-313.0, -53.0], [307.0, -57.0], [296.0, 174.0], [306.0, 295.0], [616.0, -294.0]];[[35.0, 30.0], [35.0, 30.0], [35.0, 30.0], [35.0, 30.0], [35.0, 30.0], [35.0, 30.0], [35.0, 30.0], [35.0, 30.0]];[1, 0, 0, 0, 0, 0, 1, 1];148.0;6.0;6.0;0.0;1.0;8.0;1.0;120.0;1.0;3.0
122;0;1;2;12;0;12.0;test_search;122.0;0.8501506;1.0;right;[478.0, 310.0];[35.0, 30.0];1.0;[-454.0, 297.0];[35.0, 30.0];1.0;[[-463.0, 169.0], [309.0, -46.0]];[[35.0, 30.0], [35.0, 30.0]];[1, 0];144.0;6.0;6.0;0.0;1.0;2.0;1.0;121.0;2.0;3.0
123;0;1;16;15;0;12.0;test_search;123.0;1.535632;1.0;right;[-454.0, 55.0];[35.0, 30.0];1.0;[459.0, 67.0];[35.0, 30.0];0.0;[[-618.0, 70.0], [-621.0, 174.0], [-461.0, -288.0], [-455.0, -171.0], [-480.0, -67.0], [-314.0, -297.0], [-298.0, -70.0], [-289.0, 64.0], [294.0, -302.0], [290.0, -177.0], [306.0, -72.0], [300.0, 292.0], [452.0, -296.0], [641.0, -184.0], [644.0, -67.0], [632.0, 182.0]];[[35.0, 30.0], [35.0, 30.0], [35.0, 30.0], [35.0, 30.0], [35.0, 30.0], [35.0, 30.0], [35.0, 30.0], [35.0, 30.0], [35.0, 30.0], [35.0, 30.0], [35.0, 30.0], [35.0, 30.0], [35.0, 30.0], [35.0, 30.0], [35.0, 30.0], [35.0, 30.0]];[0, 1, 0, 0, 0, 0, 1, 0, 0, 0, 1, 1, 0, 1, 1, 0];150.0;6.0;6.0;0.0;1.0;16.0;1.0;122.0;3.0;3.0
124;1;0;0;6;0;12.0;test_search;124.0;0.7347664;1.0;left;[-313.0, 290.0];[35.0, 30.0];0.0;[450.0, -51.0];[35.0, 30.0];0.0;[];[];[];131.0;6.0;6.0;1.0;0.0;0.0;1.0;123.0;4.0;3.0
125;0;0;2;2;0;12.0;test_search;125.0;0.7668175;1.0;left;[-617.0, 73.0];[35.0, 30.0];0.0;[626.0, 177.0];[35.0, 30.0];1.0;[[-313.0, -174.0], [619.0, -50.0]];[[35.0, 30.0], [35.0, 30.0]];[1, 0];123.0;6.0;6.0;0.0;0.0;2.0;1.0;124.0;5.0;3.0
126;1;0;8;9;0;12.0;test_search;126.0;0.7942361;1.0;left;[-635.0, -180.0];[35.0, 30.0];0.0;[313.0, 72.0];[35.0, 30.0];0.0;[[-641.0, -48.0], [-454.0, -301.0], [-300.0, 48.0], [-297.0, 297.0], [291.0, 165.0], [307.0, 305.0], [461.0, 49.0], [624.0, 298.0]];[[35.0, 30.0], [35.0, 30.0], [35.0, 30.0], [35.0, 30.0], [35.0, 30.0], [35.0, 30.0], [35.0, 30.0], [35.0, 30.0]];[0, 1, 0, 0, 0, 1, 0, 1];137.0;6.0;6.0;1.0;0.0;8.0;1.0;125.0;6.0;3.0
127;0;1;0;11;0;12.0;test_search;127.0;0.7406145;1.0;right;[618.0, -307.0];[35.0, 30.0];1.0;[-304.0, 308.0];[35.0, 30.0];1.0;[];[];[];142.0;6.0;6.0;0.0;1.0;0.0;1.0;126.0;7.0;3.0
128;1;1;16;20;0;12.0;test_search;128.0;0.7726208;1.0;right;[-454.0, 70.0];[35.0, 30.0];1.0;[636.0, 292.0];[35.0, 30.0];1.0;[[-619.0, -55.0], [-641.0, 59.0], [-620.0, 168.0], [-470.0, -193.0], [-294.0, -308.0], [-315.0, -167.0], [-315.0, -54.0], [-290.0, 68.0], [298.0, 68.0], [305.0, 310.0], [456.0, -190.0], [464.0, 69.0], [454.0, 192.0], [617.0, -176.0], [625.0, -69.0], [640.0, 73.0]];[[35.0, 30.0], [35.0, 30.0], [35.0, 30.0], [35.0, 30.0], [35.0, 30.0], [35.0, 30.0], [35.0, 30.0], [35.0, 30.0], [35.0, 30.0], [35.0, 30.0], [35.0, 30.0], [35.0, 30.0], [35.0, 30.0], [35.0, 30.0], [35.0, 30.0], [35.0, 30.0]];[1, 0, 1, 1, 0, 0, 0, 0, 0, 0, 0, 1, 1, 0, 0, 0];160.0;6.0;6.0;1.0;1.0;16.0;1.0;127.0;8.0;3.0
129;1;0;16;10;0;12.0;test_search;129.0;0.9780582;1.0;left;[292.0, 174.0];[35.0, 30.0];0.0;[-295.0, -314.0];[35.0, 30.0];0.0;[[-629.0, 64.0], [-636.0, 286.0], [-459.0, -311.0], [-457.0, -176.0], [-468.0, 69.0], [-294.0, 64.0], [-305.0, 170.0], [-307.0, 313.0], [288.0, -63.0], [468.0, -182.0], [477.0, 54.0], [453.0, 177.0], [625.0, -186.0], [619.0, -57.0], [637.0, 183.0], [632.0, 300.0]];[[35.0, 30.0], [35.0, 30.0], [35.0, 30.0], [35.0, 30.0], [35.0, 30.0], [35.0, 30.0], [35.0, 30.0], [35.0, 30.0], [35.0, 30.0], [35.0, 30.0], [35.0, 30.0], [35.0, 30.0], [35.0, 30.0], [35.0, 30.0], [35.0, 30.0], [35.0, 30.0]];[0, 0, 0, 0, 0, 1, 0, 1, 0, 1, 1, 1, 1, 1, 1, 0];139.0;6.0;6.0;1.0;0.0;16.0;1.0;128.0;9.0;3.0
130;1;0;4;8;0;12.0;test_search;130.0;0.6597667;1.0;left;[-463.0, -48.0];[35.0, 30.0];0.0;[299.0, 293.0];[35.0, 30.0];1.0;[[-476.0, -194.0], [-301.0, 306.0], [292.0, -172.0], [622.0, 292.0]];[[35.0, 30.0], [35.0, 30.0], [35.0, 30.0], [35.0, 30.0]];[1, 1, 1, 0];135.0;6.0;6.0;1.0;0.0;4.0;1.0;129.0;10.0;3.0
131;1;1;4;18;0;12.0;test_search;131.0;0.6647164;1.0;right;[-623.0, -50.0];[35.0, 30.0];1.0;[643.0, -170.0];[35.0, 30.0];0.0;[[-301.0, -74.0], [-310.0, 190.0], [287.0, 67.0], [311.0, 297.0]];[[35.0, 30.0], [35.0, 30.0], [35.0, 30.0], [35.0, 30.0]];[0, 1, 1, 0];156.0;6.0;6.0;1.0;1.0;4.0;1.0;130.0;11.0;3.0
132;1;1;0;16;0;12.0;test_search;132.0;0.5677599;1.0;right;[-314.0, -65.0];[35.0, 30.0];1.0;[308.0, 64.0];[35.0, 30.0];1.0;[];[];[];152.0;6.0;6.0;1.0;1.0;0.0;1.0;131.0;12.0;3.0
133;0;0;4;3;0;12.0;test_search;133.0;0.6837981;1.0;left;[-291.0, 181.0];[35.0, 30.0];0.0;[466.0, -190.0];[35.0, 30.0];0.0;[[-618.0, 180.0], [-454.0, 313.0], [471.0, 185.0], [620.0, 193.0]];[[35.0, 30.0], [35.0, 30.0], [35.0, 30.0], [35.0, 30.0]];[0, 0, 1, 1];125.0;6.0;6.0;0.0;0.0;4.0;1.0;132.0;13.0;3.0
134;0;0;0;1;0;12.0;test_search;134.0;0.6641403;1.0;left;[-466.0, 166.0];[35.0, 30.0];0.0;[305.0, -184.0];[35.0, 30.0];0.0;[];[];[];121.0;6.0;6.0;0.0;0.0;0.0;1.0;133.0;14.0;3.0
135;0;1;4;13;0;12.0;test_search;135.0;0.723507;1.0;right;[-480.0, -290.0];[35.0, 30.0];1.0;[620.0, 291.0];[35.0, 30.0];0.0;[[-632.0, 72.0], [-473.0, -46.0], [292.0, -47.0], [453.0, 72.0]];[[35.0, 30.0], [35.0, 30.0], [35.0, 30.0], [35.0, 30.0]];[1, 0, 1, 0];146.0;6.0;6.0;0.0;1.0;4.0;1.0;134.0;15.0;3.0
136;1;1;2;17;0;12.0;test_search;136.0;0.9075429;1.0;right;[641.0, -171.0];[35.0, 30.0];1.0;[-293.0, 291.0];[35.0, 30.0];1.0;[[-644.0, -180.0], [461.0, -295.0]];[[35.0, 30.0], [35.0, 30.0]];[0, 0];154.0;6.0;6.0;1.0;1.0;2.0;1.0;135.0;16.0;3.0
137;1;0;2;7;0;12.0;test_search;137.0;0.6569401;0.0;right;[621.0, -309.0];[35.0, 30.0];0.0;[-308.0, 52.0];[35.0, 30.0];1.0;[[-451.0, 299.0], [453.0, -172.0]];[[35.0, 30.0], [35.0, 30.0]];[0, 1];133.0;6.0;6.0;1.0;0.0;2.0;1.0;136.0;17.0;3.0
138;1;1;8;19;0;12.0;test_search;138.0;0.9040908;1.0;right;[-476.0, 67.0];[35.0, 30.0];1.0;[310.0, -75.0];[35.0, 30.0];0.0;[[-623.0, -306.0], [-475.0, -311.0], [-472.0, -49.0], [-472.0, 292.0], [306.0, -177.0], [300.0, 177.0], [469.0, -297.0], [462.0, 292.0]];[[35.0, 30.0], [35.0, 30.0], [35.0, 30.0], [35.0, 30.0], [35.0, 30.0], [35.0, 30.0], [35.0, 30.0], [35.0, 30.0]];[1, 0, 0, 0, 1, 0, 0, 1];158.0;6.0;6.0;1.0;1.0;8.0;1.0;137.0;18.0;3.0
139;0;0;16;5;0;12.0;test_search;139.0;0.7957706;1.0;left;[-301.0, 60.0];[35.0, 30.0];0.0;[630.0, -294.0];[35.0, 30.0];0.0;[[-638.0, -183.0], [-616.0, -63.0], [-629.0, 58.0], [-456.0, -289.0], [-472.0, -67.0], [-478.0, 175.0], [-473.0, 289.0], [-311.0, -63.0], [287.0, -51.0], [457.0, -180.0], [462.0, -58.0], [469.0, 65.0], [472.0, 187.0], [621.0, -64.0], [618.0, 62.0], [619.0, 185.0]];[[35.0, 30.0], [35.0, 30.0], [35.0, 30.0], [35.0, 30.0], [35.0, 30.0], [35.0, 30.0], [35.0, 30.0], [35.0, 30.0], [35.0, 30.0], [35.0, 30.0], [35.0, 30.0], [35.0, 30.0], [35.0, 30.0], [35.0, 30.0], [35.0, 30.0], [35.0, 30.0]];[1, 1, 0, 0, 1, 1, 0, 0, 0, 0, 0, 0, 1, 0, 1, 0];129.0;6.0;6.0;0.0;0.0;16.0;1.0;138.0;19.0;3.0
140;0;0;8;4;0;12.0;test_search;140.0;0.9948;1.0;left;[313.0, -51.0];[35.0, 30.0];0.0;[-638.0, 175.0];[35.0, 30.0];1.0;[[-622.0, 290.0], [-478.0, -74.0], [-298.0, -191.0], [-307.0, 174.0], [310.0, -298.0], [312.0, 169.0], [450.0, 54.0], [641.0, 65.0]];[[35.0, 30.0], [35.0, 30.0], [35.0, 30.0], [35.0, 30.0], [35.0, 30.0], [35.0, 30.0], [35.0, 30.0], [35.0, 30.0]];[1, 1, 0, 1, 1, 0, 1, 0];127.0;6.0;6.0;0.0;0.0;8.0;1.0;139.0;20.0;3.0
141;0;1;16;15;0;12.0;test_search;141.0;0.8327568;1.0;right;[305.0, 172.0];[35.0, 30.0];0.0;[-289.0, 292.0];[35.0, 30.0];0.0;[[-616.0, -312.0], [-455.0, -170.0], [-458.0, -71.0], [-463.0, 190.0], [-463.0, 307.0], [-305.0, -192.0], [-289.0, -70.0], [-303.0, 171.0], [465.0, -194.0], [457.0, -49.0], [458.0, 56.0], [464.0, 314.0], [627.0, -286.0], [635.0, -66.0], [641.0, 63.0], [635.0, 179.0]];[[35.0, 30.0], [35.0, 30.0], [35.0, 30.0], [35.0, 30.0], [35.0, 30.0], [35.0, 30.0], [35.0, 30.0], [35.0, 30.0], [35.0, 30.0], [35.0, 30.0], [35.0, 30.0], [35.0, 30.0], [35.0, 30.0], [35.0, 30.0], [35.0, 30.0], [35.0, 30.0]];[0, 0, 0, 1, 1, 0, 0, 0, 1, 1, 0, 0, 0, 0, 1, 0];149.0;7.0;7.0;0.0;1.0;16.0;1.0;140.0;21.0;3.0
142;1;0;8;9;0;12.0;test_search;142.0;0.9223808;1.0;left;[641.0, 68.0];[35.0, 30.0];1.0;[-473.0, 184.0];[35.0, 30.0];1.0;[[-638.0, -303.0], [-628.0, 176.0], [-314.0, -191.0], [-296.0, -54.0], [309.0, 192.0], [293.0, 301.0], [465.0, -52.0], [623.0, -46.0]];[[35.0, 30.0], [35.0, 30.0], [35.0, 30.0], [35.0, 30.0], [35.0, 30.0], [35.0, 30.0], [35.0, 30.0], [35.0, 30.0]];[1, 0, 0, 1, 0, 1, 0, 0];138.0;7.0;7.0;1.0;0.0;8.0;1.0;141.0;22.0;3.0
143;0;1;0;11;0;12.0;test_search;143.0;0.671642;1.0;right;[-466.0, -74.0];[35.0, 30.0];0.0;[634.0, 55.0];[35.0, 30.0];1.0;[];[];[];141.0;7.0;7.0;0.0;1.0;0.0;1.0;142.0;23.0;3.0
144;0;0;0;1;0;12.0;test_search;144.0;0.7700682;1.0;left;[617.0, 300.0];[35.0, 30.0];1.0;[-628.0, -47.0];[35.0, 30.0];1.0;[];[];[];122.0;7.0;7.0;0.0;0.0;0.0;1.0;143.0;24.0;3.0
145;1;1;16;20;0;12.0;test_search;145.0;0.6998022;1.0;right;[285.0, 66.0];[35.0, 30.0];0.0;[-472.0, -313.0];[35.0, 30.0];1.0;[[-619.0, -190.0], [-637.0, 178.0], [-473.0, 53.0], [-469.0, 171.0], [-305.0, -295.0], [-288.0, -167.0], [-301.0, -54.0], [-297.0, 181.0], [295.0, -46.0], [294.0, 185.0], [296.0, 295.0], [450.0, -309.0], [464.0, -65.0], [639.0, -295.0], [621.0, 73.0], [625.0, 181.0]];[[35.0, 30.0], [35.0, 30.0], [35.0, 30.0], [35.0, 30.0], [35.0, 30.0], [35.0, 30.0], [35.0, 30.0], [35.0, 30.0], [35.0, 30.0], [35.0, 30.0], [35.0, 30.0], [35.0, 30.0], [35.0, 30.0], [35.0, 30.0], [35.0, 30.0], [35.0, 30.0]];[1, 1, 0, 1, 0, 0, 1, 0, 0, 1, 1, 0, 1, 0, 1, 0];159.0;7.0;7.0;1.0;1.0;16.0;1.0;144.0;25.0;3.0
146;0;0;4;3;0;12.0;test_search;146.0;0.8901933;1.0;left;[-628.0, 165.0];[35.0, 30.0];1.0;[290.0, 55.0];[35.0, 30.0];1.0;[[-630.0, 311.0], [-314.0, -186.0], [467.0, -293.0], [453.0, 49.0]];[[35.0, 30.0], [35.0, 30.0], [35.0, 30.0], [35.0, 30.0]];[0, 0, 1, 1];126.0;7.0;7.0;0.0;0.0;4.0;1.0;145.0;26.0;3.0
147;0;0;16;5;0;12.0;test_search;147.0;0.8016091;1.0;left;[289.0, 46.0];[35.0, 30.0];1.0;[-619.0, -292.0];[35.0, 30.0];1.0;[[-629.0, 60.0], [-623.0, 186.0], [-642.0, 292.0], [-473.0, -174.0], [-474.0, -66.0], [-451.0, 67.0], [-463.0, 289.0], [-294.0, 176.0], [310.0, -167.0], [298.0, -49.0], [289.0, 168.0], [472.0, -190.0], [461.0, 46.0], [621.0, -314.0], [628.0, -56.0], [637.0, 66.0]];[[35.0, 30.0], [35.0, 30.0], [35.0, 30.0], [35.0, 30.0], [35.0, 30.0], [35.0, 30.0], [35.0, 30.0], [35.0, 30.0], [35.0, 30.0], [35.0, 30.0], [35.0, 30.0], [35.0, 30.0], [35.0, 30.0], [35.0, 30.0], [35.0, 30.0], [35.0, 30.0]];[1, 1, 1, 0, 1, 0, 1, 0, 1, 1, 0, 0, 0, 0, 0, 1];130.0;7.0;7.0;0.0;0.0;16.0;1.0;146.0;27.0;3.0
148;0;1;8;14;0;12.0;test_search;148.0;0.7723207;1.0;right;[-304.0, -68.0];[35.0, 30.0];0.0;[472.0, -286.0];[35.0, 30.0];1.0;[[-616.0, 61.0], [-465.0, 53.0], [-291.0, -191.0], [-304.0, 296.0], [294.0, 64.0], [452.0, 310.0], [622.0, -295.0], [631.0, 291.0]];[[35.0, 30.0], [35.0, 30.0], [35.0, 30.0], [35.0, 30.0], [35.0, 30.0], [35.0, 30.0], [35.0, 30.0], [35.0, 30.0]];[0, 1, 1, 1, 0, 0, 0, 0];147.0;7.0;7.0;0.0;1.0;8.0;1.0;147.0;28.0;3.0
149;0;0;2;2;0;12.0;test_search;149.0;0.7462607;1.0;left;[308.0, 172.0];[35.0, 30.0];1.0;[-296.0, 184.0];[35.0, 30.0];1.0;[[-458.0, -300.0], [624.0, 177.0]];[[35.0, 30.0], [35.0, 30.0]];[0, 0];124.0;7.0;7.0;0.0;0.0;2.0;1.0;148.0;29.0;3.0
150;1;1;0;16;0;12.0;test_search;150.0;0.6656731;1.0;right;[-309.0, -170.0];[35.0, 30.0];0.0;[626.0, -187.0];[35.0, 30.0];0.0;[];[];[];151.0;7.0;7.0;1.0;1.0;0.0;1.0;149.0;30.0;3.0
151;1;0;16;10;0;12.0;test_search;151.0;0.9607913;1.0;left;[-314.0, 312.0];[35.0, 30.0];1.0;[632.0, 287.0];[35.0, 30.0];1.0;[[-642.0, -287.0], [-626.0, -61.0], [-631.0, 64.0], [-627.0, 182.0], [-461.0, -190.0], [-455.0, 181.0], [-295.0, -306.0], [-295.0, 167.0], [290.0, -304.0], [298.0, 192.0], [474.0, -192.0], [473.0, 177.0], [624.0, -298.0], [639.0, -188.0], [638.0, 64.0], [623.0, 193.0]];[[35.0, 30.0], [35.0, 30.0], [35.0, 30.0], [35.0, 30.0], [35.0, 30.0], [35.0, 30.0], [35.0, 30.0], [35.0, 30.0], [35.0, 30.0], [35.0, 30.0], [35.0, 30.0], [35.0, 30.0], [35.0, 30.0], [35.0, 30.0], [35.0, 30.0], [35.0, 30.0]];[1, 1, 1, 1, 0, 0, 0, 1, 1, 0, 1, 1, 1, 1, 0, 0];140.0;7.0;7.0;1.0;0.0;16.0;1.0;150.0;31.0;3.0
152;1;0;2;7;0;12.0;test_search;152.0;0.8787983;1.0;left;[-619.0, 309.0];[35.0, 30.0];1.0;[303.0, 45.0];[35.0, 30.0];1.0;[[-469.0, -184.0], [453.0, 53.0]];[[35.0, 30.0], [35.0, 30.0]];[1, 0];134.0;7.0;7.0;1.0;0.0;2.0;1.0;151.0;32.0;3.0
153;0;0;8;4;0;12.0;test_search;153.0;0.7468718;1.0;left;[-620.0, 292.0];[35.0, 30.0];1.0;[643.0, 285.0];[35.0, 30.0];0.0;[[-620.0, -50.0], [-458.0, -58.0], [-473.0, 54.0], [-306.0, -293.0], [453.0, -73.0], [453.0, 304.0], [623.0, -299.0], [627.0, 186.0]];[[35.0, 30.0], [35.0, 30.0], [35.0, 30.0], [35.0, 30.0], [35.0, 30.0], [35.0, 30.0], [35.0, 30.0], [35.0, 30.0]];[1, 0, 0, 0, 1, 1, 0, 1];128.0;7.0;7.0;0.0;0.0;8.0;1.0;152.0;33.0;3.0
154;1;1;4;18;0;12.0;test_search;154.0;0.7641627;1.0;right;[-294.0, 285.0];[35.0, 30.0];0.0;[459.0, -177.0];[35.0, 30.0];0.0;[[-619.0, 173.0], [-643.0, 312.0], [459.0, -75.0], [620.0, -301.0]];[[35.0, 30.0], [35.0, 30.0], [35.0, 30.0], [35.0, 30.0]];[0, 0, 1, 1];155.0;7.0;7.0;1.0;1.0;4.0;1.0;153.0;34.0;3.0
155;1;0;4;8;0;12.0;test_search;155.0;0.7231992;1.0;left;[473.0, -182.0];[35.0, 30.0];1.0;[-295.0, -55.0];[35.0, 30.0];0.0;[[-625.0, -310.0], [-632.0, 296.0], [289.0, 178.0], [313.0, 287.0]];[[35.0, 30.0], [35.0, 30.0], [35.0, 30.0], [35.0, 30.0]];[1, 1, 1, 1];136.0;7.0;7.0;1.0;0.0;4.0;1.0;154.0;35.0;3.0
156;1;0;0;6;0;12.0;test_search;156.0;0.6753141;1.0;left;[-463.0, 303.0];[35.0, 30.0];1.0;[475.0, -48.0];[35.0, 30.0];1.0;[];[];[];132.0;7.0;7.0;1.0;0.0;0.0;1.0;155.0;36.0;3.0
157;1;1;2;17;0;12.0;test_search;157.0;0.7787305;1.0;right;[-623.0, -74.0];[35.0, 30.0];0.0;[300.0, -68.0];[35.0, 30.0];1.0;[[-298.0, 64.0], [461.0, -61.0]];[[35.0, 30.0], [35.0, 30.0]];[0, 0];153.0;7.0;7.0;1.0;1.0;2.0;1.0;156.0;37.0;3.0
158;1;1;8;19;0;12.0;test_search;158.0;0.8883765;1.0;right;[479.0, -62.0];[35.0, 30.0];0.0;[-467.0, 57.0];[35.0, 30.0];1.0;[[-474.0, -179.0], [-461.0, 302.0], [-304.0, 46.0], [-304.0, 173.0], [301.0, 186.0], [307.0, 295.0], [453.0, -170.0], [630.0, -176.0]];[[35.0, 30.0], [35.0, 30.0], [35.0, 30.0], [35.0, 30.0], [35.0, 30.0], [35.0, 30.0], [35.0, 30.0], [35.0, 30.0]];[1, 1, 1, 0, 1, 1, 1, 1];157.0;7.0;7.0;1.0;1.0;8.0;1.0;157.0;38.0;3.0
159;0;1;2;12;0;12.0;test_search;159.0;0.7809332;1.0;right;[-632.0, -170.0];[35.0, 30.0];0.0;[454.0, -61.0];[35.0, 30.0];1.0;[[-642.0, 66.0], [295.0, -305.0]];[[35.0, 30.0], [35.0, 30.0]];[1, 1];143.0;7.0;7.0;0.0;1.0;2.0;1.0;158.0;39.0;3.0
160;0;1;4;13;0;12.0;test_search;160.0;0.8090457;1.0;right;[310.0, -294.0];[35.0, 30.0];0.0;[-452.0, -180.0];[35.0, 30.0];0.0;[[-641.0, -172.0], [-304.0, -312.0], [636.0, -307.0], [635.0, 192.0]];[[35.0, 30.0], [35.0, 30.0], [35.0, 30.0], [35.0, 30.0]];[1, 0, 1, 0];145.0;7.0;7.0;0.0;1.0;4.0;1.0;159.0;40.0;3.0
161;1;0;16;10;0;12.0;test_search;161.0;0.9554929;1.0;left;[-628.0, 183.0];[35.0, 30.0];0.0;[305.0, -187.0];[35.0, 30.0];1.0;[[-630.0, 66.0], [-462.0, -56.0], [-451.0, 63.0], [-461.0, 184.0], [-288.0, -192.0], [-288.0, 66.0], [-287.0, 174.0], [-292.0, 302.0], [286.0, -304.0], [295.0, -62.0], [293.0, 63.0], [308.0, 185.0], [305.0, 314.0], [454.0, -307.0], [620.0, 188.0], [619.0, 304.0]];[[35.0, 30.0], [35.0, 30.0], [35.0, 30.0], [35.0, 30.0], [35.0, 30.0], [35.0, 30.0], [35.0, 30.0], [35.0, 30.0], [35.0, 30.0], [35.0, 30.0], [35.0, 30.0], [35.0, 30.0], [35.0, 30.0], [35.0, 30.0], [35.0, 30.0], [35.0, 30.0]];[1, 0, 0, 1, 0, 0, 0, 1, 0, 0, 1, 1, 1, 0, 1, 1];179.0;8.0;8.0;1.0;0.0;16.0;1.0;160.0;41.0;3.0
162;1;0;2;7;0;12.0;test_search;162.0;0.7644047;1.0;left;[-311.0, 290.0];[35.0, 30.0];0.0;[464.0, -46.0];[35.0, 30.0];1.0;[[-627.0, 165.0], [627.0, -289.0]];[[35.0, 30.0], [35.0, 30.0]];[1, 1];173.0;8.0;8.0;1.0;0.0;2.0;1.0;161.0;42.0;3.0
163;0;1;4;13;0;12.0;test_search;163.0;0.7504915;1.0;right;[-313.0, -74.0];[35.0, 30.0];1.0;[288.0, -312.0];[35.0, 30.0];0.0;[[-463.0, -53.0], [-298.0, -190.0], [293.0, 47.0], [620.0, 165.0]];[[35.0, 30.0], [35.0, 30.0], [35.0, 30.0], [35.0, 30.0]];[1, 0, 1, 0];186.0;8.0;8.0;0.0;1.0;4.0;1.0;162.0;43.0;3.0
164;0;0;8;4;0;12.0;test_search;164.0;0.8157739;1.0;left;[-616.0, -56.0];[35.0, 30.0];0.0;[451.0, -290.0];[35.0, 30.0];0.0;[[-639.0, 189.0], [-479.0, 56.0], [-470.0, 189.0], [-288.0, 51.0], [309.0, 62.0], [476.0, -192.0], [469.0, 189.0], [461.0, 304.0]];[[35.0, 30.0], [35.0, 30.0], [35.0, 30.0], [35.0, 30.0], [35.0, 30.0], [35.0, 30.0], [35.0, 30.0], [35.0, 30.0]];[0, 1, 1, 1, 1, 1, 0, 1];167.0;8.0;8.0;0.0;0.0;8.0;1.0;163.0;44.0;3.0
165;1;1;8;19;0;12.0;test_search;165.0;0.6633942;1.0;right;[301.0, 69.0];[35.0, 30.0];1.0;[-480.0, 70.0];[35.0, 30.0];0.0;[[-619.0, 304.0], [-479.0, -182.0], [-469.0, 299.0], [-312.0, 182.0], [456.0, -57.0], [468.0, 179.0], [643.0, -71.0], [628.0, 174.0]];[[35.0, 30.0], [35.0, 30.0], [35.0, 30.0], [35.0, 30.0], [35.0, 30.0], [35.0, 30.0], [35.0, 30.0], [35.0, 30.0]];[1, 0, 0, 0, 1, 0, 1, 0];198.0;8.0;8.0;1.0;1.0;8.0;1.0;164.0;45.0;3.0
166;0;1;16;15;0;12.0;test_search;166.0;1.022819;1.0;right;[-641.0, -310.0];[35.0, 30.0];1.0;[635.0, 65.0];[35.0, 30.0];1.0;[[-620.0, 300.0], [-463.0, -287.0], [-472.0, -169.0], [-473.0, 61.0], [-463.0, 303.0], [-310.0, -52.0], [-287.0, 60.0], [-294.0, 309.0], [305.0, 172.0], [450.0, -63.0], [455.0, 60.0], [454.0, 194.0], [461.0, 304.0], [640.0, -299.0], [622.0, 193.0], [636.0, 299.0]];[[35.0, 30.0], [35.0, 30.0], [35.0, 30.0], [35.0, 30.0], [35.0, 30.0], [35.0, 30.0], [35.0, 30.0], [35.0, 30.0], [35.0, 30.0], [35.0, 30.0], [35.0, 30.0], [35.0, 30.0], [35.0, 30.0], [35.0, 30.0], [35.0, 30.0], [35.0, 30.0]];[0, 0, 0, 1, 0, 1, 0, 1, 0, 0, 1, 1, 0, 1, 1, 1];190.0;8.0;8.0;0.0;1.0;16.0;1.0;165.0;46.0;3.0
167;0;0;0;1;0;12.0;test_search;167.0;0.7662573;1.0;left;[-458.0, 181.0];[35.0, 30.0];0.0;[453.0, 170.0];[35.0, 30.0];0.0;[];[];[];161.0;8.0;8.0;0.0;0.0;0.0;1.0;166.0;47.0;3.0
168;1;0;4;8;0;12.0;test_search;168.0;1.0003442;1.0;left;[458.0, -192.0];[35.0, 30.0];0.0;[-303.0, 188.0];[35.0, 30.0];0.0;[[-626.0, -170.0], [-290.0, -65.0], [302.0, -195.0], [632.0, 192.0]];[[35.0, 30.0], [35.0, 30.0], [35.0, 30.0], [35.0, 30.0]];[0, 0, 1, 0];175.0;8.0;8.0;1.0;0.0;4.0;1.0;167.0;48.0;3.0
169;0;1;8;14;0;12.0;test_search;169.0;0.8543799;1.0;right;[-634.0, 298.0];[35.0, 30.0];1.0;[310.0, -47.0];[35.0, 30.0];1.0;[[-464.0, -72.0], [-286.0, -288.0], [-303.0, 68.0], [-295.0, 194.0], [291.0, 53.0], [452.0, -190.0], [456.0, 55.0], [643.0, -58.0]];[[35.0, 30.0], [35.0, 30.0], [35.0, 30.0], [35.0, 30.0], [35.0, 30.0], [35.0, 30.0], [35.0, 30.0], [35.0, 30.0]];[1, 1, 1, 1, 0, 1, 1, 1];188.0;8.0;8.0;0.0;1.0;8.0;1.0;168.0;49.0;3.0
170;0;1;2;12;0;12.0;test_search;170.0;0.8831197;1.0;right;[458.0, -67.0];[35.0, 30.0];1.0;[-299.0, 185.0];[35.0, 30.0];0.0;[[-645.0, 165.0], [644.0, -193.0]];[[35.0, 30.0], [35.0, 30.0]];[0, 0];184.0;8.0;8.0;0.0;1.0;2.0;1.0;169.0;50.0;3.0
171;1;1;2;17;0;12.0;test_search;171.0;0.8905007;1.0;right;[639.0, -292.0];[35.0, 30.0];1.0;[-298.0, 291.0];[35.0, 30.0];1.0;[[-301.0, -179.0], [472.0, -186.0]];[[35.0, 30.0], [35.0, 30.0]];[0, 0];194.0;8.0;8.0;1.0;1.0;2.0;1.0;170.0;51.0;3.0
172;1;0;0;6;0;12.0;test_search;172.0;0.6529674;1.0;left;[-288.0, 298.0];[35.0, 30.0];0.0;[452.0, 171.0];[35.0, 30.0];0.0;[];[];[];171.0;8.0;8.0;1.0;0.0;0.0;1.0;171.0;52.0;3.0
173;1;1;4;18;0;12.0;test_search;173.0;0.7825302;1.0;right;[-630.0, 289.0];[35.0, 30.0];1.0;[454.0, 287.0];[35.0, 30.0];1.0;[[-478.0, -60.0], [-303.0, 179.0], [452.0, -67.0], [451.0, 170.0]];[[35.0, 30.0], [35.0, 30.0], [35.0, 30.0], [35.0, 30.0]];[1, 1, 0, 0];196.0;8.0;8.0;1.0;1.0;4.0;1.0;172.0;53.0;3.0
174;1;1;16;20;0;12.0;test_search;174.0;0.7516012;1.0;right;[-298.0, -286.0];[35.0, 30.0];1.0;[298.0, 313.0];[35.0, 30.0];0.0;[[-625.0, -184.0], [-621.0, 69.0], [-616.0, 314.0], [-475.0, 52.0], [-459.0, 192.0], [-296.0, -73.0], [-308.0, 71.0], [-314.0, 181.0], [291.0, -293.0], [286.0, -68.0], [299.0, 180.0], [471.0, -305.0], [466.0, 308.0], [638.0, -294.0], [616.0, -63.0], [618.0, 66.0]];[[35.0, 30.0], [35.0, 30.0], [35.0, 30.0], [35.0, 30.0], [35.0, 30.0], [35.0, 30.0], [35.0, 30.0], [35.0, 30.0], [35.0, 30.0], [35.0, 30.0], [35.0, 30.0], [35.0, 30.0], [35.0, 30.0], [35.0, 30.0], [35.0, 30.0], [35.0, 30.0]];[1, 1, 0, 1, 0, 0, 1, 0, 1, 1, 0, 1, 1, 0, 1, 1];200.0;8.0;8.0;1.0;1.0;16.0;1.0;173.0;54.0;3.0
175;1;0;8;9;0;12.0;test_search;175.0;0.7965944;1.0;left;[-459.0, -55.0];[35.0, 30.0];0.0;[475.0, 301.0];[35.0, 30.0];0.0;[[-643.0, -175.0], [-618.0, 55.0], [-641.0, 307.0], [-472.0, -297.0], [311.0, -64.0], [304.0, 62.0], [637.0, -311.0], [623.0, 172.0]];[[35.0, 30.0], [35.0, 30.0], [35.0, 30.0], [35.0, 30.0], [35.0, 30.0], [35.0, 30.0], [35.0, 30.0], [35.0, 30.0]];[1, 1, 1, 1, 1, 0, 0, 0];177.0;8.0;8.0;1.0;0.0;8.0;1.0;174.0;55.0;3.0
176;1;1;0;16;0;12.0;test_search;176.0;0.7633869;1.0;right;[621.0, -174.0];[35.0, 30.0];1.0;[-645.0, 297.0];[35.0, 30.0];0.0;[];[];[];192.0;8.0;8.0;1.0;1.0;0.0;1.0;175.0;56.0;3.0
177;0;0;2;2;0;12.0;test_search;177.0;0.6731363;1.0;left;[302.0, -69.0];[35.0, 30.0];0.0;[-305.0, -166.0];[35.0, 30.0];0.0;[[-289.0, -61.0], [299.0, -187.0]];[[35.0, 30.0], [35.0, 30.0]];[1, 0];163.0;8.0;8.0;0.0;0.0;2.0;1.0;176.0;57.0;3.0
178;0;0;16;5;0;12.0;test_search;178.0;0.777044;1.0;left;[-314.0, 186.0];[35.0, 30.0];0.0;[290.0, -312.0];[35.0, 30.0];1.0;[[-620.0, -295.0], [-630.0, -194.0], [-641.0, -67.0], [-624.0, 183.0], [-464.0, 62.0], [-315.0, -300.0], [-296.0, -48.0], [-314.0, 307.0], [291.0, -52.0], [296.0, 299.0], [478.0, -172.0], [461.0, -47.0], [473.0, 60.0], [619.0, -294.0], [626.0, -69.0], [631.0, 294.0]];[[35.0, 30.0], [35.0, 30.0], [35.0, 30.0], [35.0, 30.0], [35.0, 30.0], [35.0, 30.0], [35.0, 30.0], [35.0, 30.0], [35.0, 30.0], [35.0, 30.0], [35.0, 30.0], [35.0, 30.0], [35.0, 30.0], [35.0, 30.0], [35.0, 30.0], [35.0, 30.0]];[0, 0, 0, 1, 1, 1, 1, 1, 1, 1, 0, 1, 1, 0, 1, 1];169.0;8.0;8.0;0.0;0.0;16.0;1.0;177.0;58.0;3.0
179;0;0;4;3;0;12.0;test_search;179.0;0.6562052;1.0;left;[287.0, -72.0];[35.0, 30.0];0.0;[-630.0, 181.0];[35.0, 30.0];1.0;[[-616.0, -191.0], [-638.0, -51.0], [288.0, 58.0], [632.0, 194.0]];[[35.0, 30.0], [35.0, 30.0], [35.0, 30.0], [35.0, 30.0]];[0, 0, 1, 0];165.0;8.0;8.0;0.0;0.0;4.0;1.0;178.0;59.0;3.0
180;0;1;0;11;0;12.0;test_search;180.0;0.6877362;1.0;right;[-311.0, -191.0];[35.0, 30.0];1.0;[293.0, 305.0];[35.0, 30.0];1.0;[];[];[];182.0;8.0;8.0;0.0;1.0;0.0;1.0;179.0;60.0;3.0
181;0;0;8;4;0;12.0;test_search;181.0;0.8224813;1.0;left;[310.0, 177.0];[35.0, 30.0];1.0;[-619.0, -195.0];[35.0, 30.0];0.0;[[-632.0, -51.0], [-623.0, 69.0], [-462.0, -177.0], [-471.0, 304.0], [467.0, -71.0], [631.0, -52.0], [622.0, 60.0], [642.0, 192.0]];[[35.0, 30.0], [35.0, 30.0], [35.0, 30.0], [35.0, 30.0], [35.0, 30.0], [35.0, 30.0], [35.0, 30.0], [35.0, 30.0]];[1, 1, 1, 1, 0, 1, 1, 0];168.0;9.0;9.0;0.0;0.0;8.0;1.0;180.0;1.0;4.0
182;1;1;0;16;0;12.0;test_search;182.0;0.7174567;1.0;right;[-623.0, -70.0];[35.0, 30.0];0.0;[636.0, -182.0];[35.0, 30.0];1.0;[];[];[];191.0;9.0;9.0;1.0;1.0;0.0;1.0;181.0;2.0;4.0
183;1;0;16;10;0;12.0;test_search;183.0;1.0882202;1.0;left;[620.0, 178.0];[35.0, 30.0];1.0;[-635.0, -59.0];[35.0, 30.0];0.0;[[-622.0, -304.0], [-622.0, -167.0], [-645.0, 47.0], [-480.0, -300.0], [-457.0, -55.0], [-463.0, 69.0], [-478.0, 194.0], [-292.0, -306.0], [288.0, -177.0], [302.0, 180.0], [301.0, 306.0], [477.0, -170.0], [461.0, 172.0], [633.0, -302.0], [640.0, -178.0], [637.0, 47.0]];[[35.0, 30.0], [35.0, 30.0], [35.0, 30.0], [35.0, 30.0], [35.0, 30.0], [35.0, 30.0], [35.0, 30.0], [35.0, 30.0], [35.0, 30.0], [35.0, 30.0], [35.0, 30.0], [35.0, 30.0], [35.0, 30.0], [35.0, 30.0], [35.0, 30.0], [35.0, 30.0]];[0, 1, 0, 1, 1, 1, 1, 0, 0, 1, 0, 1, 1, 0, 0, 1];180.0;9.0;9.0;1.0;0.0;16.0;1.0;182.0;3.0;4.0
184;1;0;0;6;0;12.0;test_search;184.0;0.7051947;1.0;left;[-464.0, -173.0];[35.0, 30.0];1.0;[294.0, 50.0];[35.0, 30.0];1.0;[];[];[];172.0;9.0;9.0;1.0;0.0;0.0;1.0;183.0;4.0;4.0
185;1;0;8;9;0;12.0;test_search;185.0;0.7849798;1.0;left;[454.0, 301.0];[35.0, 30.0];1.0;[-291.0, 72.0];[35.0, 30.0];0.0;[[-642.0, 46.0], [-458.0, 63.0], [-467.0, 303.0], [-295.0, 189.0], [312.0, -295.0], [641.0, -304.0], [641.0, -184.0], [640.0, -53.0]];[[35.0, 30.0], [35.0, 30.0], [35.0, 30.0], [35.0, 30.0], [35.0, 30.0], [35.0, 30.0], [35.0, 30.0], [35.0, 30.0]];[0, 0, 1, 1, 1, 1, 1, 0];178.0;9.0;9.0;1.0;0.0;8.0;1.0;184.0;5.0;4.0
186;1;1;16;20;0;12.0;test_search;186.0;0.7069001;1.0;right;[458.0, -51.0];[35.0, 30.0];0.0;[-619.0, 49.0];[35.0, 30.0];0.0;[[-633.0, -178.0], [-629.0, -47.0], [-629.0, 287.0], [-460.0, -307.0], [-473.0, -56.0], [-469.0, 59.0], [-302.0, -295.0], [-290.0, 308.0], [294.0, -302.0], [285.0, -48.0], [314.0, 188.0], [475.0, -309.0], [452.0, 180.0], [626.0, -289.0], [642.0, 57.0], [638.0, 306.0]];[[35.0, 30.0], [35.0, 30.0], [35.0, 30.0], [35.0, 30.0], [35.0, 30.0], [35.0, 30.0], [35.0, 30.0], [35.0, 30.0], [35.0, 30.0], [35.0, 30.0], [35.0, 30.0], [35.0, 30.0], [35.0, 30.0], [35.0, 30.0], [35.0, 30.0], [35.0, 30.0]];[1, 0, 0, 0, 0, 0, 1, 0, 1, 0, 1, 1, 0, 1, 1, 0];199.0;9.0;9.0;1.0;1.0;16.0;1.0;185.0;6.0;4.0
187;0;0;16;5;0;12.0;test_search;187.0;0.8606592;1.0;left;[-468.0, 299.0];[35.0, 30.0];1.0;[290.0, 56.0];[35.0, 30.0];1.0;[[-635.0, -52.0], [-617.0, 169.0], [-620.0, 303.0], [-464.0, -296.0], [-451.0, -189.0], [-476.0, 55.0], [-286.0, -287.0], [-312.0, -66.0], [297.0, -180.0], [314.0, -54.0], [289.0, 311.0], [478.0, -308.0], [461.0, -188.0], [470.0, 57.0], [456.0, 170.0], [640.0, 54.0]];[[35.0, 30.0], [35.0, 30.0], [35.0, 30.0], [35.0, 30.0], [35.0, 30.0], [35.0, 30.0], [35.0, 30.0], [35.0, 30.0], [35.0, 30.0], [35.0, 30.0], [35.0, 30.0], [35.0, 30.0], [35.0, 30.0], [35.0, 30.0], [35.0, 30.0], [35.0, 30.0]];[0, 1, 0, 1, 0, 0, 1, 1, 0, 1, 0, 0, 0, 0, 1, 0];170.0;9.0;9.0;0.0;0.0;16.0;1.0;186.0;7.0;4.0
188;1;1;2;17;0;12.0;test_search;188.0;0.8039495;1.0;right;[634.0, -312.0];[35.0, 30.0];0.0;[-313.0, 193.0];[35.0, 30.0];1.0;[[-471.0, 66.0], [466.0, 58.0]];[[35.0, 30.0], [35.0, 30.0]];[1, 0];193.0;9.0;9.0;1.0;1.0;2.0;1.0;187.0;8.0;4.0
189;1;1;8;19;0;12.0;test_search;189.0;0.6683716;1.0;right;[301.0, 61.0];[35.0, 30.0];0.0;[-637.0, 288.0];[35.0, 30.0];1.0;[[-629.0, -167.0], [-469.0, 65.0], [-475.0, 189.0], [-286.0, -66.0], [312.0, -60.0], [309.0, 312.0], [462.0, 66.0], [624.0, 187.0]];[[35.0, 30.0], [35.0, 30.0], [35.0, 30.0], [35.0, 30.0], [35.0, 30.0], [35.0, 30.0], [35.0, 30.0], [35.0, 30.0]];[1, 0, 0, 1, 1, 0, 0, 0];197.0;9.0;9.0;1.0;1.0;8.0;1.0;188.0;9.0;4.0
190;1;1;4;18;0;12.0;test_search;190.0;0.7270776;1.0;right;[-479.0, -50.0];[35.0, 30.0];0.0;[307.0, 176.0];[35.0, 30.0];0.0;[[-459.0, -299.0], [-471.0, 178.0], [304.0, -170.0], [309.0, 293.0]];[[35.0, 30.0], [35.0, 30.0], [35.0, 30.0], [35.0, 30.0]];[1, 1, 1, 0];195.0;9.0;9.0;1.0;1.0;4.0;1.0;189.0;10.0;4.0
191;0;0;2;2;0;12.0;test_search;191.0;0.7423198;1.0;left;[-617.0, -53.0];[35.0, 30.0];1.0;[294.0, 50.0];[35.0, 30.0];1.0;[[-287.0, -312.0], [618.0, 186.0]];[[35.0, 30.0], [35.0, 30.0]];[0, 0];164.0;9.0;9.0;0.0;0.0;2.0;1.0;190.0;11.0;4.0
192;0;1;8;14;0;12.0;test_search;192.0;0.9111488;1.0;right;[634.0, 186.0];[35.0, 30.0];0.0;[-456.0, -293.0];[35.0, 30.0];0.0;[[-472.0, 172.0], [-468.0, 304.0], [-308.0, -300.0], [-308.0, 183.0], [310.0, -307.0], [302.0, 179.0], [471.0, -54.0], [638.0, -294.0]];[[35.0, 30.0], [35.0, 30.0], [35.0, 30.0], [35.0, 30.0], [35.0, 30.0], [35.0, 30.0], [35.0, 30.0], [35.0, 30.0]];[1, 1, 1, 0, 1, 0, 0, 1];187.0;9.0;9.0;0.0;1.0;8.0;1.0;191.0;12.0;4.0
193;0;1;0;11;0;12.0;test_search;193.0;0.6421629;1.0;right;[-480.0, -55.0];[35.0, 30.0];0.0;[630.0, 309.0];[35.0, 30.0];1.0;[];[];[];181.0;9.0;9.0;0.0;1.0;0.0;1.0;192.0;13.0;4.0
194;1;0;2;7;0;12.0;test_search;194.0;0.7668735;1.0;left;[478.0, 173.0];[35.0, 30.0];1.0;[-305.0, -73.0];[35.0, 30.0];0.0;[[-308.0, -180.0], [629.0, 187.0]];[[35.0, 30.0], [35.0, 30.0]];[0, 0];174.0;9.0;9.0;1.0;0.0;2.0;1.0;193.0;14.0;4.0
195;0;1;16;15;0;12.0;test_search;195.0;0.7705502;1.0;right;[-468.0, 176.0];[35.0, 30.0];0.0;[452.0, -290.0];[35.0, 30.0];1.0;[[-645.0, -68.0], [-620.0, 48.0], [-463.0, -301.0], [-460.0, -71.0], [-476.0, 46.0], [-296.0, -169.0], [-288.0, 181.0], [-296.0, 303.0], [301.0, -61.0], [453.0, 66.0], [469.0, 294.0], [641.0, -300.0], [627.0, -63.0], [624.0, 60.0], [631.0, 179.0], [638.0, 309.0]];[[35.0, 30.0], [35.0, 30.0], [35.0, 30.0], [35.0, 30.0], [35.0, 30.0], [35.0, 30.0], [35.0, 30.0], [35.0, 30.0], [35.0, 30.0], [35.0, 30.0], [35.0, 30.0], [35.0, 30.0], [35.0, 30.0], [35.0, 30.0], [35.0, 30.0], [35.0, 30.0]];[1, 0, 1, 0, 1, 0, 1, 0, 1, 1, 0, 1, 0, 0, 1, 0];189.0;9.0;9.0;0.0;1.0;16.0;1.0;194.0;15.0;4.0
196;1;0;4;8;0;12.0;test_search;196.0;0.8905801;1.0;left;[-645.0, 190.0];[35.0, 30.0];1.0;[286.0, -182.0];[35.0, 30.0];0.0;[[-474.0, -309.0], [-308.0, 169.0], [615.0, -176.0], [624.0, -60.0]];[[35.0, 30.0], [35.0, 30.0], [35.0, 30.0], [35.0, 30.0]];[1, 1, 0, 1];176.0;9.0;9.0;1.0;0.0;4.0;1.0;195.0;16.0;4.0
197;0;0;0;1;0;12.0;test_search;197.0;0.5848515;1.0;left;[-312.0, 169.0];[35.0, 30.0];1.0;[629.0, 170.0];[35.0, 30.0];1.0;[];[];[];162.0;9.0;9.0;0.0;0.0;0.0;1.0;196.0;17.0;4.0
198;0;0;4;3;0;12.0;test_search;198.0;0.76261;1.0;left;[627.0, -73.0];[35.0, 30.0];1.0;[-460.0, -48.0];[35.0, 30.0];1.0;[[-620.0, 62.0], [-296.0, 180.0], [286.0, -189.0], [469.0, 191.0]];[[35.0, 30.0], [35.0, 30.0], [35.0, 30.0], [35.0, 30.0]];[1, 1, 0, 0];166.0;9.0;9.0;0.0;0.0;4.0;1.0;197.0;18.0;4.0
199;0;1;2;12;0;12.0;test_search;199.0;0.6622166;1.0;right;[-467.0, -169.0];[35.0, 30.0];0.0;[294.0, 312.0];[35.0, 30.0];1.0;[[-466.0, 58.0], [627.0, 48.0]];[[35.0, 30.0], [35.0, 30.0]];[0, 0];183.0;9.0;9.0;0.0;1.0;2.0;1.0;198.0;19.0;4.0
200;0;1;4;13;0;12.0;test_search;200.0;0.6506207;1.0;right;[466.0, -62.0];[35.0, 30.0];0.0;[-464.0, -193.0];[35.0, 30.0];1.0;[[-463.0, 309.0], [-296.0, -57.0], [468.0, -304.0], [636.0, -177.0]];[[35.0, 30.0], [35.0, 30.0], [35.0, 30.0], [35.0, 30.0]];[1, 0, 0, 0];185.0;9.0;9.0;0.0;1.0;4.0;1.0;199.0;20.0;4.0
201;1;1;4;18;0;12.0;test_search;201.0;0.7807425;1.0;right;[637.0, -63.0];[35.0, 30.0];1.0;[-466.0, 191.0];[35.0, 30.0];0.0;[[-632.0, -315.0], [-453.0, -181.0], [307.0, 193.0], [479.0, -53.0]];[[35.0, 30.0], [35.0, 30.0], [35.0, 30.0], [35.0, 30.0]];[1, 1, 1, 1];236.0;10.0;10.0;1.0;1.0;4.0;1.0;200.0;21.0;4.0
202;1;1;0;16;0;12.0;test_search;202.0;0.6967149;1.0;right;[-627.0, 292.0];[35.0, 30.0];1.0;[636.0, 296.0];[35.0, 30.0];0.0;[];[];[];232.0;10.0;10.0;1.0;1.0;0.0;1.0;201.0;22.0;4.0
203;1;1;2;17;0;12.0;test_search;203.0;0.7808968;1.0;right;[457.0, 314.0];[35.0, 30.0];1.0;[-452.0, -307.0];[35.0, 30.0];1.0;[[-638.0, 73.0], [285.0, 50.0]];[[35.0, 30.0], [35.0, 30.0]];[1, 0];234.0;10.0;10.0;1.0;1.0;2.0;1.0;202.0;23.0;4.0
204;1;1;8;19;0;12.0;test_search;204.0;0.7435884;1.0;right;[640.0, 305.0];[35.0, 30.0];1.0;[-315.0, 187.0];[35.0, 30.0];1.0;[[-627.0, 179.0], [-626.0, 314.0], [-299.0, -180.0], [-311.0, 60.0], [305.0, -184.0], [464.0, -171.0], [453.0, 49.0], [642.0, -49.0]];[[35.0, 30.0], [35.0, 30.0], [35.0, 30.0], [35.0, 30.0], [35.0, 30.0], [35.0, 30.0], [35.0, 30.0], [35.0, 30.0]];[1, 0, 0, 0, 1, 0, 1, 1];238.0;10.0;10.0;1.0;1.0;8.0;1.0;203.0;24.0;4.0
205;0;1;4;13;0;12.0;test_search;205.0;0.8304896;0.0;left;[644.0, -188.0];[35.0, 30.0];1.0;[-635.0, 183.0];[35.0, 30.0];0.0;[[-298.0, -305.0], [-307.0, -189.0], [297.0, -69.0], [466.0, -59.0]];[[35.0, 30.0], [35.0, 30.0], [35.0, 30.0], [35.0, 30.0]];[0, 1, 0, 0];226.0;10.0;10.0;0.0;1.0;4.0;1.0;204.0;25.0;4.0
206;1;0;8;9;0;12.0;test_search;206.0;0.9640327;1.0;left;[630.0, 47.0];[35.0, 30.0];0.0;[-465.0, -54.0];[35.0, 30.0];0.0;[[-457.0, -174.0], [-451.0, 176.0], [-308.0, 69.0], [-306.0, 176.0], [459.0, -312.0], [469.0, -182.0], [458.0, -63.0], [634.0, -51.0]];[[35.0, 30.0], [35.0, 30.0], [35.0, 30.0], [35.0, 30.0], [35.0, 30.0], [35.0, 30.0], [35.0, 30.0], [35.0, 30.0]];[1, 0, 0, 0, 1, 1, 1, 1];217.0;10.0;10.0;1.0;0.0;8.0;1.0;205.0;26.0;4.0
207;0;0;2;2;0;12.0;test_search;207.0;0.8264746;1.0;left;[621.0, -190.0];[35.0, 30.0];0.0;[-476.0, 67.0];[35.0, 30.0];1.0;[[-637.0, -65.0], [308.0, 72.0]];[[35.0, 30.0], [35.0, 30.0]];[0, 1];203.0;10.0;10.0;0.0;0.0;2.0;1.0;206.0;27.0;4.0
208;0;0;16;5;0;12.0;test_search;208.0;1.1830177;1.0;left;[-467.0, 190.0];[35.0, 30.0];0.0;[458.0, -297.0];[35.0, 30.0];1.0;[[-634.0, -309.0], [-617.0, -171.0], [-643.0, -63.0], [-638.0, 50.0], [-461.0, -59.0], [-459.0, 303.0], [-298.0, -53.0], [-289.0, 71.0], [288.0, -183.0], [454.0, -174.0], [458.0, -69.0], [452.0, 188.0], [475.0, 296.0], [639.0, -167.0], [637.0, -49.0], [626.0, 175.0]];[[35.0, 30.0], [35.0, 30.0], [35.0, 30.0], [35.0, 30.0], [35.0, 30.0], [35.0, 30.0], [35.0, 30.0], [35.0, 30.0], [35.0, 30.0], [35.0, 30.0], [35.0, 30.0], [35.0, 30.0], [35.0, 30.0], [35.0, 30.0], [35.0, 30.0], [35.0, 30.0]];[0, 0, 0, 1, 1, 0, 0, 1, 1, 1, 1, 0, 1, 0, 0, 1];209.0;10.0;10.0;0.0;0.0;16.0;1.0;207.0;28.0;4.0
209;1;0;4;8;0;12.0;test_search;209.0;1.1186496;1.0;left;[637.0, -169.0];[35.0, 30.0];0.0;[-634.0, -72.0];[35.0, 30.0];1.0;[[-467.0, -314.0], [-469.0, 66.0], [289.0, 54.0], [636.0, 60.0]];[[35.0, 30.0], [35.0, 30.0], [35.0, 30.0], [35.0, 30.0]];[1, 0, 1, 0];215.0;10.0;10.0;1.0;0.0;4.0;1.0;208.0;29.0;4.0
210;0;0;4;3;0;12.0;test_search;210.0;0.6463439;1.0;left;[476.0, 73.0];[35.0, 30.0];0.0;[-620.0, 58.0];[35.0, 30.0];1.0;[[-455.0, 74.0], [-295.0, -61.0], [291.0, -57.0], [465.0, 175.0]];[[35.0, 30.0], [35.0, 30.0], [35.0, 30.0], [35.0, 30.0]];[0, 1, 1, 0];205.0;10.0;10.0;0.0;0.0;4.0;1.0;209.0;30.0;4.0
211;1;0;2;7;0;12.0;test_search;211.0;0.7407277;1.0;left;[-626.0, 182.0];[35.0, 30.0];0.0;[455.0, -307.0];[35.0, 30.0];1.0;[[-465.0, -53.0], [288.0, 53.0]];[[35.0, 30.0], [35.0, 30.0]];[1, 0];213.0;10.0;10.0;1.0;0.0;2.0;1.0;210.0;31.0;4.0
212;0;1;8;14;0;12.0;test_search;212.0;0.7183252;1.0;right;[-465.0, 50.0];[35.0, 30.0];1.0;[467.0, 60.0];[35.0, 30.0];0.0;[[-640.0, -286.0], [-463.0, -311.0], [-460.0, 296.0], [-292.0, -59.0], [286.0, -168.0], [467.0, -67.0], [635.0, -292.0], [637.0, -69.0]];[[35.0, 30.0], [35.0, 30.0], [35.0, 30.0], [35.0, 30.0], [35.0, 30.0], [35.0, 30.0], [35.0, 30.0], [35.0, 30.0]];[1, 1, 1, 0, 1, 0, 1, 0];228.0;10.0;10.0;0.0;1.0;8.0;1.0;211.0;32.0;4.0
213;1;0;0;6;0;12.0;test_search;213.0;0.9328137;1.0;left;[461.0, -75.0];[35.0, 30.0];0.0;[-468.0, -292.0];[35.0, 30.0];1.0;[];[];[];211.0;10.0;10.0;1.0;0.0;0.0;1.0;212.0;33.0;4.0
214;0;1;0;11;0;12.0;test_search;214.0;0.6827037;1.0;right;[301.0, -187.0];[35.0, 30.0];1.0;[-294.0, 74.0];[35.0, 30.0];1.0;[];[];[];222.0;10.0;10.0;0.0;1.0;0.0;1.0;213.0;34.0;4.0
215;0;0;0;1;0;12.0;test_search;215.0;0.8137117;1.0;left;[298.0, 70.0];[35.0, 30.0];0.0;[-474.0, 295.0];[35.0, 30.0];1.0;[];[];[];201.0;10.0;10.0;0.0;0.0;0.0;1.0;214.0;35.0;4.0
216;0;1;2;12;0;12.0;test_search;216.0;0.7316158;1.0;right;[457.0, 187.0];[35.0, 30.0];1.0;[-310.0, -51.0];[35.0, 30.0];1.0;[[-288.0, -291.0], [623.0, -191.0]];[[35.0, 30.0], [35.0, 30.0]];[1, 0];224.0;10.0;10.0;0.0;1.0;2.0;1.0;215.0;36.0;4.0
217;1;1;16;20;0;12.0;test_search;217.0;0.9028723;1.0;right;[-465.0, -191.0];[35.0, 30.0];1.0;[469.0, -47.0];[35.0, 30.0];1.0;[[-639.0, -311.0], [-644.0, -66.0], [-624.0, 173.0], [-453.0, -55.0], [-456.0, 48.0], [-313.0, -315.0], [-299.0, 65.0], [-310.0, 294.0], [286.0, -310.0], [285.0, 62.0], [301.0, 286.0], [452.0, -184.0], [452.0, 169.0], [464.0, 307.0], [642.0, 60.0], [626.0, 314.0]];[[35.0, 30.0], [35.0, 30.0], [35.0, 30.0], [35.0, 30.0], [35.0, 30.0], [35.0, 30.0], [35.0, 30.0], [35.0, 30.0], [35.0, 30.0], [35.0, 30.0], [35.0, 30.0], [35.0, 30.0], [35.0, 30.0], [35.0, 30.0], [35.0, 30.0], [35.0, 30.0]];[0, 1, 0, 0, 1, 1, 0, 0, 0, 1, 1, 1, 1, 1, 1, 1];240.0;10.0;10.0;1.0;1.0;16.0;1.0;216.0;37.0;4.0
218;0;0;8;4;0;12.0;test_search;218.0;0.8467746;1.0;left;[626.0, 186.0];[35.0, 30.0];0.0;[-294.0, 169.0];[35.0, 30.0];0.0;[[-638.0, 172.0], [-644.0, 286.0], [-468.0, -192.0], [-307.0, -183.0], [292.0, -56.0], [475.0, -182.0], [464.0, 179.0], [621.0, -186.0]];[[35.0, 30.0], [35.0, 30.0], [35.0, 30.0], [35.0, 30.0], [35.0, 30.0], [35.0, 30.0], [35.0, 30.0], [35.0, 30.0]];[1, 0, 1, 0, 0, 1, 0, 0];207.0;10.0;10.0;0.0;0.0;8.0;1.0;217.0;38.0;4.0
219;0;1;16;15;0;12.0;test_search;219.0;0.975095;1.0;right;[-621.0, 191.0];[35.0, 30.0];1.0;[288.0, 178.0];[35.0, 30.0];1.0;[[-645.0, -183.0], [-622.0, -59.0], [-624.0, 287.0], [-453.0, -176.0], [-453.0, -52.0], [-463.0, 186.0], [-315.0, -314.0], [-288.0, -53.0], [297.0, -61.0], [290.0, 290.0], [451.0, -297.0], [467.0, -180.0], [468.0, -72.0], [476.0, 53.0], [462.0, 180.0], [619.0, 188.0]];[[35.0, 30.0], [35.0, 30.0], [35.0, 30.0], [35.0, 30.0], [35.0, 30.0], [35.0, 30.0], [35.0, 30.0], [35.0, 30.0], [35.0, 30.0], [35.0, 30.0], [35.0, 30.0], [35.0, 30.0], [35.0, 30.0], [35.0, 30.0], [35.0, 30.0], [35.0, 30.0]];[0, 0, 0, 0, 1, 0, 1, 1, 0, 0, 0, 1, 0, 0, 1, 1];230.0;10.0;10.0;0.0;1.0;16.0;1.0;218.0;39.0;4.0
220;1;0;16;10;0;12.0;test_search;220.0;0.8331995;1.0;left;[-299.0, 69.0];[35.0, 30.0];0.0;[469.0, 62.0];[35.0, 30.0];0.0;[[-625.0, -307.0], [-624.0, 173.0], [-622.0, 295.0], [-464.0, -65.0], [-471.0, 63.0], [-291.0, -310.0], [-292.0, -63.0], [-315.0, 191.0], [291.0, -299.0], [291.0, -195.0], [297.0, 300.0], [466.0, -286.0], [457.0, 186.0], [642.0, -289.0], [616.0, -51.0], [629.0, 167.0]];[[35.0, 30.0], [35.0, 30.0], [35.0, 30.0], [35.0, 30.0], [35.0, 30.0], [35.0, 30.0], [35.0, 30.0], [35.0, 30.0], [35.0, 30.0], [35.0, 30.0], [35.0, 30.0], [35.0, 30.0], [35.0, 30.0], [35.0, 30.0], [35.0, 30.0], [35.0, 30.0]];[0, 1, 0, 1, 0, 0, 1, 0, 0, 0, 1, 1, 1, 0, 1, 0];219.0;10.0;10.0;1.0;0.0;16.0;1.0;219.0;40.0;4.0
221;1;1;0;16;0;12.0;test_search;221.0;0.6749073;1.0;right;[300.0, -72.0];[35.0, 30.0];0.0;[-479.0, 311.0];[35.0, 30.0];1.0;[];[];[];231.0;11.0;11.0;1.0;1.0;0.0;1.0;220.0;41.0;4.0
222;0;0;0;1;0;12.0;test_search;222.0;0.6649213;1.0;left;[299.0, -166.0];[35.0, 30.0];1.0;[-298.0, -64.0];[35.0, 30.0];0.0;[];[];[];202.0;11.0;11.0;0.0;0.0;0.0;1.0;221.0;42.0;4.0
223;1;0;0;6;0;12.0;test_search;223.0;0.7118774;1.0;left;[314.0, 302.0];[35.0, 30.0];1.0;[-472.0, 168.0];[35.0, 30.0];0.0;[];[];[];212.0;11.0;11.0;1.0;0.0;0.0;1.0;222.0;43.0;4.0
224;1;0;16;10;0;12.0;test_search;224.0;0.7474519;1.0;left;[-300.0, 174.0];[35.0, 30.0];1.0;[621.0, -194.0];[35.0, 30.0];0.0;[[-631.0, -166.0], [-627.0, -71.0], [-625.0, 177.0], [-637.0, 291.0], [-454.0, -297.0], [-460.0, 53.0], [-472.0, 176.0], [-315.0, -172.0], [310.0, -297.0], [306.0, -174.0], [310.0, -63.0], [312.0, 58.0], [300.0, 312.0], [457.0, -292.0], [452.0, -181.0], [456.0, 166.0]];[[35.0, 30.0], [35.0, 30.0], [35.0, 30.0], [35.0, 30.0], [35.0, 30.0], [35.0, 30.0], [35.0, 30.0], [35.0, 30.0], [35.0, 30.0], [35.0, 30.0], [35.0, 30.0], [35.0, 30.0], [35.0, 30.0], [35.0, 30.0], [35.0, 30.0], [35.0, 30.0]];[1, 0, 0, 0, 1, 1, 0, 0, 1, 0, 1, 0, 1, 1, 0, 0];220.0;11.0;11.0;1.0;0.0;16.0;1.0;223.0;44.0;4.0
225;0;0;16;5;0;12.0;test_search;225.0;0.9591971;1.0;left;[314.0, -188.0];[35.0, 30.0];1.0;[-478.0, 298.0];[35.0, 30.0];1.0;[[-630.0, -189.0], [-619.0, 73.0], [-632.0, 194.0], [-477.0, -288.0], [-464.0, -66.0], [-457.0, 65.0], [-307.0, -168.0], [-308.0, 59.0], [303.0, 56.0], [309.0, 314.0], [479.0, -194.0], [462.0, -55.0], [639.0, -309.0], [626.0, -188.0], [633.0, -63.0], [640.0, 187.0]];[[35.0, 30.0], [35.0, 30.0], [35.0, 30.0], [35.0, 30.0], [35.0, 30.0], [35.0, 30.0], [35.0, 30.0], [35.0, 30.0], [35.0, 30.0], [35.0, 30.0], [35.0, 30.0], [35.0, 30.0], [35.0, 30.0], [35.0, 30.0], [35.0, 30.0], [35.0, 30.0]];[0, 1, 1, 0, 1, 1, 1, 0, 0, 1, 0, 1, 1, 0, 1, 0];210.0;11.0;11.0;0.0;0.0;16.0;1.0;224.0;45.0;4.0
226;1;1;8;19;0;12.0;test_search;226.0;1.1812968;1.0;right;[624.0, 183.0];[35.0, 30.0];0.0;[-464.0, 311.0];[35.0, 30.0];0.0;[[-643.0, -307.0], [-455.0, -49.0], [-471.0, 69.0], [-455.0, 182.0], [466.0, 63.0], [451.0, 166.0], [470.0, 309.0], [615.0, 74.0]];[[35.0, 30.0], [35.0, 30.0], [35.0, 30.0], [35.0, 30.0], [35.0, 30.0], [35.0, 30.0], [35.0, 30.0], [35.0, 30.0]];[0, 0, 1, 0, 1, 1, 1, 0];237.0;11.0;11.0;1.0;1.0;8.0;1.0;225.0;46.0;4.0
227;1;0;2;7;0;12.0;test_search;227.0;0.7909696;1.0;left;[301.0, 169.0];[35.0, 30.0];1.0;[-479.0, -186.0];[35.0, 30.0];0.0;[[-641.0, 47.0], [305.0, 303.0]];[[35.0, 30.0], [35.0, 30.0]];[0, 0];214.0;11.0;11.0;1.0;0.0;2.0;1.0;226.0;47.0;4.0
228;1;0;8;9;0;12.0;test_search;228.0;0.8676836;1.0;left;[642.0, -51.0];[35.0, 30.0];1.0;[-640.0, -175.0];[35.0, 30.0];1.0;[[-644.0, -58.0], [-462.0, 172.0], [-293.0, -183.0], [-309.0, -75.0], [301.0, 189.0], [619.0, -308.0], [628.0, -170.0], [630.0, 59.0]];[[35.0, 30.0], [35.0, 30.0], [35.0, 30.0], [35.0, 30.0], [35.0, 30.0], [35.0, 30.0], [35.0, 30.0], [35.0, 30.0]];[1, 1, 1, 0, 1, 1, 0, 0];218.0;11.0;11.0;1.0;0.0;8.0;1.0;227.0;48.0;4.0
229;1;1;4;18;0;12.0;test_search;229.0;0.7964089;1.0;right;[623.0, -192.0];[35.0, 30.0];0.0;[-636.0, -167.0];[35.0, 30.0];1.0;[[-633.0, 176.0], [-296.0, -55.0], [452.0, 74.0], [616.0, 53.0]];[[35.0, 30.0], [35.0, 30.0], [35.0, 30.0], [35.0, 30.0]];[1, 0, 0, 0];235.0;11.0;11.0;1.0;1.0;4.0;1.0;228.0;49.0;4.0
230;0;1;0;11;0;12.0;test_search;230.0;0.7733746;1.0;right;[623.0, 179.0];[35.0, 30.0];0.0;[-291.0, -298.0];[35.0, 30.0];1.0;[];[];[];221.0;11.0;11.0;0.0;1.0;0.0;1.0;229.0;50.0;4.0
231;0;1;4;13;0;12.0;test_search;231.0;0.9268961;1.0;right;[-629.0, -181.0];[35.0, 30.0];0.0;[623.0, 286.0];[35.0, 30.0];0.0;[[-462.0, 293.0], [-315.0, -288.0], [474.0, 49.0], [450.0, 183.0]];[[35.0, 30.0], [35.0, 30.0], [35.0, 30.0], [35.0, 30.0]];[1, 1, 1, 1];225.0;11.0;11.0;0.0;1.0;4.0;1.0;230.0;51.0;4.0
232;0;1;2;12;0;12.0;test_search;232.0;0.6421138;1.0;right;[300.0, -184.0];[35.0, 30.0];0.0;[-302.0, -191.0];[35.0, 30.0];0.0;[[-469.0, -182.0], [634.0, 180.0]];[[35.0, 30.0], [35.0, 30.0]];[0, 0];223.0;11.0;11.0;0.0;1.0;2.0;1.0;231.0;52.0;4.0
233;1;1;2;17;0;12.0;test_search;233.0;0.9096224;1.0;right;[-617.0, -309.0];[35.0, 30.0];0.0;[295.0, -288.0];[35.0, 30.0];0.0;[[-309.0, 178.0], [288.0, 177.0]];[[35.0, 30.0], [35.0, 30.0]];[0, 1];233.0;11.0;11.0;1.0;1.0;2.0;1.0;232.0;53.0;4.0
234;0;0;4;3;0;12.0;test_search;234.0;0.7823372;1.0;left;[-289.0, -193.0];[35.0, 30.0];1.0;[638.0, 72.0];[35.0, 30.0];1.0;[[-618.0, -58.0], [-294.0, 314.0], [635.0, -293.0], [638.0, 293.0]];[[35.0, 30.0], [35.0, 30.0], [35.0, 30.0], [35.0, 30.0]];[0, 0, 0, 1];206.0;11.0;11.0;0.0;0.0;4.0;1.0;233.0;54.0;4.0
235;0;0;2;2;0;12.0;test_search;235.0;0.8088206;1.0;left;[-635.0, 59.0];[35.0, 30.0];1.0;[299.0, 58.0];[35.0, 30.0];0.0;[[-291.0, -293.0], [622.0, 166.0]];[[35.0, 30.0], [35.0, 30.0]];[1, 0];204.0;11.0;11.0;0.0;0.0;2.0;1.0;234.0;55.0;4.0
236;0;1;8;14;0;12.0;test_search;236.0;0.67386;1.0;right;[307.0, -169.0];[35.0, 30.0];0.0;[-455.0, -169.0];[35.0, 30.0];0.0;[[-465.0, -307.0], [-454.0, 56.0], [-479.0, 194.0], [-306.0, -63.0], [307.0, 298.0], [461.0, -309.0], [641.0, -169.0], [631.0, 182.0]];[[35.0, 30.0], [35.0, 30.0], [35.0, 30.0], [35.0, 30.0], [35.0, 30.0], [35.0, 30.0], [35.0, 30.0], [35.0, 30.0]];[0, 0, 1, 0, 0, 1, 1, 1];227.0;11.0;11.0;0.0;1.0;8.0;1.0;235.0;56.0;4.0
237;0;1;16;15;0;12.0;test_search;237.0;0.8154574;1.0;right;[-456.0, -292.0];[35.0, 30.0];0.0;[624.0, -64.0];[35.0, 30.0];0.0;[[-616.0, -308.0], [-619.0, -188.0], [-632.0, -53.0], [-621.0, 46.0], [-454.0, -177.0], [-467.0, -61.0], [-286.0, -287.0], [-297.0, 58.0], [288.0, -298.0], [297.0, -169.0], [287.0, 166.0], [314.0, 297.0], [478.0, -291.0], [463.0, -71.0], [477.0, 175.0], [626.0, 181.0]];[[35.0, 30.0], [35.0, 30.0], [35.0, 30.0], [35.0, 30.0], [35.0, 30.0], [35.0, 30.0], [35.0, 30.0], [35.0, 30.0], [35.0, 30.0], [35.0, 30.0], [35.0, 30.0], [35.0, 30.0], [35.0, 30.0], [35.0, 30.0], [35.0, 30.0], [35.0, 30.0]];[0, 1, 1, 1, 0, 0, 1, 1, 1, 1, 0, 1, 1, 1, 0, 0];229.0;11.0;11.0;0.0;1.0;16.0;1.0;236.0;57.0;4.0
238;0;0;8;4;0;12.0;test_search;238.0;0.8346658;1.0;left;[-304.0, 167.0];[35.0, 30.0];1.0;[291.0, 57.0];[35.0, 30.0];0.0;[[-639.0, -301.0], [-477.0, -302.0], [-478.0, 48.0], [-292.0, -296.0], [293.0, -175.0], [305.0, -75.0], [310.0, 303.0], [452.0, 184.0]];[[35.0, 30.0], [35.0, 30.0], [35.0, 30.0], [35.0, 30.0], [35.0, 30.0], [35.0, 30.0], [35.0, 30.0], [35.0, 30.0]];[0, 0, 0, 1, 1, 1, 0, 0];208.0;11.0;11.0;0.0;0.0;8.0;1.0;237.0;58.0;4.0
239;1;1;16;20;0;12.0;test_search;239.0;0.7774539;1.0;right;[-300.0, -313.0];[35.0, 30.0];0.0;[615.0, -311.0];[35.0, 30.0];0.0;[[-629.0, -302.0], [-636.0, -65.0], [-625.0, 57.0], [-637.0, 303.0], [-470.0, -313.0], [-472.0, -177.0], [-463.0, 174.0], [-289.0, 295.0], [310.0, -293.0], [297.0, 52.0], [455.0, -301.0], [470.0, 305.0], [627.0, -195.0], [618.0, -54.0], [625.0, 177.0], [636.0, 309.0]];[[35.0, 30.0], [35.0, 30.0], [35.0, 30.0], [35.0, 30.0], [35.0, 30.0], [35.0, 30.0], [35.0, 30.0], [35.0, 30.0], [35.0, 30.0], [35.0, 30.0], [35.0, 30.0], [35.0, 30.0], [35.0, 30.0], [35.0, 30.0], [35.0, 30.0], [35.0, 30.0]];[1, 1, 1, 1, 0, 0, 1, 0, 1, 1, 1, 1, 0, 1, 1, 0];239.0;11.0;11.0;1.0;1.0;16.0;1.0;238.0;59.0;4.0
240;1;0;4;8;0;12.0;test_search;240.0;1.0021352;1.0;left;[292.0, 311.0];[35.0, 30.0];1.0;[-466.0, 185.0];[35.0, 30.0];1.0;[[-460.0, 300.0], [-299.0, -186.0], [466.0, -58.0], [631.0, 53.0]];[[35.0, 30.0], [35.0, 30.0], [35.0, 30.0], [35.0, 30.0]];[0, 1, 0, 0];216.0;11.0;11.0;1.0;0.0;4.0;1.0;239.0;60.0;4.0
