TrialNumber;bg_or;t_or;num_distractors;trial_id;trial_rep;participant;trial_type;trial_index;resp_rt;resp_corr;resp_keys;target_pos;target_size;singleton_id;singleton_pos;singleton_size;singleton_ori;lures_pos;lures_size;lures_ori;original_TrialNum;thisRepN_original;thisRepN;bg_or_original;t_or_original;num_distractors_original;ran;order
1;1;1;0;16;0;1.0;practice_search;1.0;1.0507414;1.0;right;[-462.0, 56.0];[35.0, 30.0];1.0;[312.0, 186.0];[35.0, 30.0];1.0;[];[];[];32.0;0.0;0.0;1.0;1.0;0.0;1.0;0.0
2;1;0;2;7;0;1.0;practice_search;2.0;0.6645708;1.0;left;[476.0, -300.0];[35.0, 30.0];0.0;[-641.0, -185.0];[35.0, 30.0];1.0;[[-458.0, -314.0], [287.0, 56.0]];[[35.0, 30.0], [35.0, 30.0]];[0, 0];13.0;0.0;0.0;1.0;0.0;2.0;1.0;1.0
3;0;1;16;15;0;1.0;practice_search;3.0;0.910808;1.0;right;[457.0, -182.0];[35.0, 30.0];1.0;[-625.0, -312.0];[35.0, 30.0];0.0;[[-632.0, -46.0], [-616.0, 50.0], [-476.0, -179.0], [-479.0, -74.0], [-455.0, 56.0], [-313.0, -73.0], [-286.0, 171.0], [-298.0, 292.0], [310.0, -315.0], [309.0, -168.0], [288.0, -50.0], [287.0, 59.0], [311.0, 166.0], [472.0, -62.0], [458.0, 296.0], [616.0, 313.0]];[[35.0, 30.0], [35.0, 30.0], [35.0, 30.0], [35.0, 30.0], [35.0, 30.0], [35.0, 30.0], [35.0, 30.0], [35.0, 30.0], [35.0, 30.0], [35.0, 30.0], [35.0, 30.0], [35.0, 30.0], [35.0, 30.0], [35.0, 30.0], [35.0, 30.0], [35.0, 30.0]];[1, 1, 1, 0, 0, 0, 1, 0, 1, 0, 0, 1, 0, 1, 0, 1];30.0;0.0;0.0;0.0;1.0;16.0;1.0;2.0
4;0;1;2;12;0;1.0;practice_search;4.0;0.7427032;1.0;right;[644.0, -57.0];[35.0, 30.0];1.0;[-468.0, 309.0];[35.0, 30.0];1.0;[[-617.0, 297.0], [479.0, 297.0]];[[35.0, 30.0], [35.0, 30.0]];[1, 0];24.0;0.0;0.0;0.0;1.0;2.0;1.0;3.0
5;1;0;8;9;0;1.0;practice_search;5.0;0.6031575;1.0;left;[300.0, 66.0];[35.0, 30.0];0.0;[-478.0, 177.0];[35.0, 30.0];1.0;[[-627.0, 310.0], [-459.0, -181.0], [-290.0, -74.0], [-290.0, 52.0], [290.0, -192.0], [467.0, -181.0], [456.0, 308.0], [617.0, -290.0]];[[35.0, 30.0], [35.0, 30.0], [35.0, 30.0], [35.0, 30.0], [35.0, 30.0], [35.0, 30.0], [35.0, 30.0], [35.0, 30.0]];[0, 1, 1, 0, 0, 0, 0, 1];17.0;0.0;0.0;1.0;0.0;8.0;1.0;4.0
6;1;0;0;6;0;1.0;practice_search;6.0;0.6113132;1.0;left;[627.0, 188.0];[35.0, 30.0];0.0;[-295.0, 288.0];[35.0, 30.0];1.0;[];[];[];11.0;0.0;0.0;1.0;0.0;0.0;1.0;5.0
7;1;1;8;19;0;1.0;practice_search;7.0;0.9372947;1.0;right;[-302.0, 63.0];[35.0, 30.0];1.0;[478.0, -58.0];[35.0, 30.0];1.0;[[-631.0, 285.0], [-459.0, 183.0], [-473.0, 292.0], [-311.0, 309.0], [290.0, -166.0], [290.0, 314.0], [464.0, 193.0], [627.0, 300.0]];[[35.0, 30.0], [35.0, 30.0], [35.0, 30.0], [35.0, 30.0], [35.0, 30.0], [35.0, 30.0], [35.0, 30.0], [35.0, 30.0]];[0, 0, 1, 1, 0, 1, 0, 0];38.0;0.0;0.0;1.0;1.0;8.0;1.0;6.0
8;0;0;0;1;0;1.0;practice_search;8.0;0.6140617;1.0;left;[472.0, -166.0];[35.0, 30.0];0.0;[-461.0, -49.0];[35.0, 30.0];1.0;[];[];[];1.0;0.0;0.0;0.0;0.0;0.0;1.0;7.0
9;0;1;0;11;0;1.0;practice_search;9.0;0.7545415;1.0;right;[-463.0, 73.0];[35.0, 30.0];1.0;[287.0, -312.0];[35.0, 30.0];1.0;[];[];[];22.0;0.0;0.0;0.0;1.0;0.0;1.0;8.0
10;0;0;2;2;0;1.0;practice_search;10.0;0.5868297;1.0;left;[641.0, -181.0];[35.0, 30.0];0.0;[-299.0, -288.0];[35.0, 30.0];0.0;[[-634.0, -52.0], [464.0, 290.0]];[[35.0, 30.0], [35.0, 30.0]];[0, 0];3.0;0.0;0.0;0.0;0.0;2.0;1.0;9.0
11;0;1;8;14;0;1.0;practice_search;11.0;0.9394588;1.0;right;[289.0, 55.0];[35.0, 30.0];1.0;[-475.0, 306.0];[35.0, 30.0];1.0;[[-628.0, 166.0], [-457.0, -293.0], [-466.0, -47.0], [-307.0, -185.0], [298.0, 171.0], [475.0, -72.0], [643.0, -191.0], [637.0, -65.0]];[[35.0, 30.0], [35.0, 30.0], [35.0, 30.0], [35.0, 30.0], [35.0, 30.0], [35.0, 30.0], [35.0, 30.0], [35.0, 30.0]];[1, 1, 0, 0, 0, 0, 0, 0];28.0;0.0;0.0;0.0;1.0;8.0;1.0;10.0
12;0;0;8;4;0;1.0;practice_search;12.0;0.7034438;1.0;left;[643.0, 174.0];[35.0, 30.0];0.0;[-616.0, 285.0];[35.0, 30.0];1.0;[[-625.0, 185.0], [-461.0, -286.0], [-473.0, -58.0], [-297.0, -61.0], [307.0, -304.0], [298.0, -62.0], [478.0, 169.0], [465.0, 297.0]];[[35.0, 30.0], [35.0, 30.0], [35.0, 30.0], [35.0, 30.0], [35.0, 30.0], [35.0, 30.0], [35.0, 30.0], [35.0, 30.0]];[1, 1, 1, 1, 0, 0, 1, 1];7.0;0.0;0.0;0.0;0.0;8.0;1.0;11.0
13;1;1;16;20;0;--;--;--;--;--;--;--;--;--;--;--;--;--;--;--;--;--;--;--;--;--;0.0;--
14;1;1;2;17;0;--;--;--;--;--;--;--;--;--;--;--;--;--;--;--;--;--;--;--;--;--;0.0;--
15;0;1;4;13;0;--;--;--;--;--;--;--;--;--;--;--;--;--;--;--;--;--;--;--;--;--;0.0;--
16;1;0;4;8;0;--;--;--;--;--;--;--;--;--;--;--;--;--;--;--;--;--;--;--;--;--;0.0;--
17;1;1;4;18;0;--;--;--;--;--;--;--;--;--;--;--;--;--;--;--;--;--;--;--;--;--;0.0;--
18;0;0;4;3;0;--;--;--;--;--;--;--;--;--;--;--;--;--;--;--;--;--;--;--;--;--;0.0;--
19;1;0;16;10;0;--;--;--;--;--;--;--;--;--;--;--;--;--;--;--;--;--;--;--;--;--;0.0;--
20;0;0;16;5;0;--;--;--;--;--;--;--;--;--;--;--;--;--;--;--;--;--;--;--;--;--;0.0;--
