TrialNumber;bg_or;t_or;num_distractors;trial_id;trial_rep;participant;trial_type;trial_index;resp_rt;resp_corr;resp_keys;target_pos;target_size;singleton_id;singleton_pos;singleton_size;singleton_ori;lures_pos;lures_size;lures_ori;original_TrialNum;thisRepN_original;thisRepN;bg_or_original;t_or_original;num_distractors_original;ran;order;trial_inblock_index;block_index
1;1;0;4;8;0;14.0;test_freeview;1.0;5555.0;5555.0;freeview_timeup;[314.0, 73.0];[35.0, 30.0];0.0;[-295.0, -294.0];[35.0, 30.0];0.0;[[-631.0, 298.0], [-299.0, 185.0], [470.0, 314.0], [618.0, -170.0]];[[35.0, 30.0], [35.0, 30.0], [35.0, 30.0], [35.0, 30.0]];[1, 1, 1, 1];15.0;0.0;0.0;1.0;0.0;4.0;1.0;0.0;1.0;1.0
2;1;0;0;6;0;14.0;test_freeview;2.0;5555.0;5555.0;freeview_timeup;[627.0, 188.0];[35.0, 30.0];0.0;[-295.0, 288.0];[35.0, 30.0];1.0;[];[];[];11.0;0.0;0.0;1.0;0.0;0.0;1.0;1.0;2.0;1.0
3;1;0;8;9;0;14.0;test_freeview;3.0;5555.0;5555.0;freeview_timeup;[300.0, 66.0];[35.0, 30.0];0.0;[-478.0, 177.0];[35.0, 30.0];1.0;[[-627.0, 310.0], [-459.0, -181.0], [-290.0, -74.0], [-290.0, 52.0], [290.0, -192.0], [467.0, -181.0], [456.0, 308.0], [617.0, -290.0]];[[35.0, 30.0], [35.0, 30.0], [35.0, 30.0], [35.0, 30.0], [35.0, 30.0], [35.0, 30.0], [35.0, 30.0], [35.0, 30.0]];[0, 1, 1, 0, 0, 0, 0, 1];17.0;0.0;0.0;1.0;0.0;8.0;1.0;2.0;3.0;1.0
4;0;1;8;14;0;14.0;test_freeview;4.0;5555.0;5555.0;freeview_timeup;[289.0, 55.0];[35.0, 30.0];1.0;[-475.0, 306.0];[35.0, 30.0];1.0;[[-628.0, 166.0], [-457.0, -293.0], [-466.0, -47.0], [-307.0, -185.0], [298.0, 171.0], [475.0, -72.0], [643.0, -191.0], [637.0, -65.0]];[[35.0, 30.0], [35.0, 30.0], [35.0, 30.0], [35.0, 30.0], [35.0, 30.0], [35.0, 30.0], [35.0, 30.0], [35.0, 30.0]];[1, 1, 0, 0, 0, 0, 0, 0];28.0;0.0;0.0;0.0;1.0;8.0;1.0;3.0;4.0;1.0
5;1;1;8;19;0;14.0;test_freeview;5.0;5555.0;5555.0;freeview_timeup;[-302.0, 63.0];[35.0, 30.0];1.0;[478.0, -58.0];[35.0, 30.0];1.0;[[-631.0, 285.0], [-459.0, 183.0], [-473.0, 292.0], [-311.0, 309.0], [290.0, -166.0], [290.0, 314.0], [464.0, 193.0], [627.0, 300.0]];[[35.0, 30.0], [35.0, 30.0], [35.0, 30.0], [35.0, 30.0], [35.0, 30.0], [35.0, 30.0], [35.0, 30.0], [35.0, 30.0]];[0, 0, 1, 1, 0, 1, 0, 0];38.0;0.0;0.0;1.0;1.0;8.0;1.0;4.0;5.0;1.0
6;0;1;16;15;0;14.0;test_freeview;6.0;5555.0;5555.0;freeview_timeup;[457.0, -182.0];[35.0, 30.0];1.0;[-625.0, -312.0];[35.0, 30.0];0.0;[[-632.0, -46.0], [-616.0, 50.0], [-476.0, -179.0], [-479.0, -74.0], [-455.0, 56.0], [-313.0, -73.0], [-286.0, 171.0], [-298.0, 292.0], [310.0, -315.0], [309.0, -168.0], [288.0, -50.0], [287.0, 59.0], [311.0, 166.0], [472.0, -62.0], [458.0, 296.0], [616.0, 313.0]];[[35.0, 30.0], [35.0, 30.0], [35.0, 30.0], [35.0, 30.0], [35.0, 30.0], [35.0, 30.0], [35.0, 30.0], [35.0, 30.0], [35.0, 30.0], [35.0, 30.0], [35.0, 30.0], [35.0, 30.0], [35.0, 30.0], [35.0, 30.0], [35.0, 30.0], [35.0, 30.0]];[1, 1, 1, 0, 0, 0, 1, 0, 1, 0, 0, 1, 0, 1, 0, 1];30.0;0.0;0.0;0.0;1.0;16.0;1.0;5.0;6.0;1.0
7;0;1;0;11;0;14.0;test_freeview;7.0;5555.0;5555.0;freeview_timeup;[-463.0, 73.0];[35.0, 30.0];1.0;[287.0, -312.0];[35.0, 30.0];1.0;[];[];[];22.0;0.0;0.0;0.0;1.0;0.0;1.0;6.0;7.0;1.0
8;0;1;2;12;0;14.0;test_freeview;8.0;5555.0;5555.0;freeview_timeup;[644.0, -57.0];[35.0, 30.0];1.0;[-468.0, 309.0];[35.0, 30.0];1.0;[[-617.0, 297.0], [479.0, 297.0]];[[35.0, 30.0], [35.0, 30.0]];[1, 0];24.0;0.0;0.0;0.0;1.0;2.0;1.0;7.0;8.0;1.0
9;1;1;16;20;0;14.0;test_freeview;9.0;5555.0;5555.0;freeview_timeup;[302.0, 309.0];[35.0, 30.0];1.0;[-465.0, 65.0];[35.0, 30.0];0.0;[[-624.0, -183.0], [-641.0, -67.0], [-640.0, 171.0], [-630.0, 312.0], [-468.0, -186.0], [-464.0, -48.0], [-308.0, -304.0], [-300.0, -178.0], [302.0, -193.0], [303.0, 175.0], [456.0, -297.0], [459.0, -187.0], [478.0, 60.0], [469.0, 172.0], [644.0, -63.0], [617.0, 57.0]];[[35.0, 30.0], [35.0, 30.0], [35.0, 30.0], [35.0, 30.0], [35.0, 30.0], [35.0, 30.0], [35.0, 30.0], [35.0, 30.0], [35.0, 30.0], [35.0, 30.0], [35.0, 30.0], [35.0, 30.0], [35.0, 30.0], [35.0, 30.0], [35.0, 30.0], [35.0, 30.0]];[1, 1, 1, 0, 1, 0, 0, 0, 0, 1, 1, 0, 1, 0, 0, 0];40.0;0.0;0.0;1.0;1.0;16.0;1.0;8.0;9.0;1.0
10;1;0;16;10;0;14.0;test_freeview;10.0;5555.0;5555.0;freeview_timeup;[-286.0, -59.0];[35.0, 30.0];0.0;[473.0, 72.0];[35.0, 30.0];0.0;[[-619.0, -289.0], [-641.0, -59.0], [-644.0, 68.0], [-455.0, -180.0], [-476.0, -71.0], [-463.0, 66.0], [-462.0, 194.0], [-298.0, 179.0], [302.0, -302.0], [293.0, 189.0], [297.0, 307.0], [457.0, -182.0], [465.0, 313.0], [638.0, -167.0], [634.0, -65.0], [643.0, 65.0]];[[35.0, 30.0], [35.0, 30.0], [35.0, 30.0], [35.0, 30.0], [35.0, 30.0], [35.0, 30.0], [35.0, 30.0], [35.0, 30.0], [35.0, 30.0], [35.0, 30.0], [35.0, 30.0], [35.0, 30.0], [35.0, 30.0], [35.0, 30.0], [35.0, 30.0], [35.0, 30.0]];[1, 1, 1, 0, 1, 1, 1, 1, 1, 1, 1, 0, 1, 0, 0, 1];19.0;0.0;0.0;1.0;0.0;16.0;1.0;9.0;10.0;1.0
11;0;0;0;1;0;14.0;test_freeview;11.0;5555.0;5555.0;freeview_timeup;[472.0, -166.0];[35.0, 30.0];0.0;[-461.0, -49.0];[35.0, 30.0];1.0;[];[];[];1.0;0.0;0.0;0.0;0.0;0.0;1.0;10.0;11.0;1.0
12;1;1;0;16;0;14.0;test_freeview;12.0;5555.0;5555.0;freeview_timeup;[-462.0, 56.0];[35.0, 30.0];1.0;[312.0, 186.0];[35.0, 30.0];1.0;[];[];[];32.0;0.0;0.0;1.0;1.0;0.0;1.0;11.0;12.0;1.0
13;0;0;16;5;0;14.0;test_freeview;13.0;5555.0;5555.0;freeview_timeup;[288.0, 308.0];[35.0, 30.0];0.0;[-301.0, 306.0];[35.0, 30.0];0.0;[[-618.0, -315.0], [-632.0, 49.0], [-631.0, 179.0], [-466.0, -294.0], [-473.0, -56.0], [-457.0, 194.0], [-311.0, -183.0], [-297.0, 55.0], [300.0, -312.0], [300.0, 64.0], [464.0, -288.0], [471.0, -194.0], [474.0, -73.0], [468.0, 58.0], [644.0, -169.0], [633.0, 70.0]];[[35.0, 30.0], [35.0, 30.0], [35.0, 30.0], [35.0, 30.0], [35.0, 30.0], [35.0, 30.0], [35.0, 30.0], [35.0, 30.0], [35.0, 30.0], [35.0, 30.0], [35.0, 30.0], [35.0, 30.0], [35.0, 30.0], [35.0, 30.0], [35.0, 30.0], [35.0, 30.0]];[0, 0, 1, 0, 1, 0, 1, 1, 1, 1, 0, 1, 0, 1, 1, 1];9.0;0.0;0.0;0.0;0.0;16.0;1.0;12.0;13.0;1.0
14;0;0;8;4;0;14.0;test_freeview;14.0;5555.0;5555.0;freeview_timeup;[643.0, 174.0];[35.0, 30.0];0.0;[-616.0, 285.0];[35.0, 30.0];1.0;[[-625.0, 185.0], [-461.0, -286.0], [-473.0, -58.0], [-297.0, -61.0], [307.0, -304.0], [298.0, -62.0], [478.0, 169.0], [465.0, 297.0]];[[35.0, 30.0], [35.0, 30.0], [35.0, 30.0], [35.0, 30.0], [35.0, 30.0], [35.0, 30.0], [35.0, 30.0], [35.0, 30.0]];[1, 1, 1, 1, 0, 0, 1, 1];7.0;0.0;0.0;0.0;0.0;8.0;1.0;13.0;14.0;1.0
15;0;1;4;13;0;14.0;test_freeview;15.0;5555.0;5555.0;freeview_timeup;[615.0, 183.0];[35.0, 30.0];1.0;[-307.0, 303.0];[35.0, 30.0];0.0;[[-639.0, -288.0], [-625.0, 305.0], [309.0, -172.0], [300.0, 294.0]];[[35.0, 30.0], [35.0, 30.0], [35.0, 30.0], [35.0, 30.0]];[1, 1, 0, 1];26.0;0.0;0.0;0.0;1.0;4.0;1.0;14.0;15.0;1.0
16;1;0;2;7;0;14.0;test_freeview;16.0;5555.0;5555.0;freeview_timeup;[476.0, -300.0];[35.0, 30.0];0.0;[-641.0, -185.0];[35.0, 30.0];1.0;[[-458.0, -314.0], [287.0, 56.0]];[[35.0, 30.0], [35.0, 30.0]];[0, 0];13.0;0.0;0.0;1.0;0.0;2.0;1.0;15.0;16.0;1.0
17;1;1;4;18;0;14.0;test_freeview;17.0;5555.0;5555.0;freeview_timeup;[630.0, -63.0];[35.0, 30.0];1.0;[-306.0, 305.0];[35.0, 30.0];0.0;[[-635.0, -54.0], [-630.0, 66.0], [477.0, -171.0], [474.0, 306.0]];[[35.0, 30.0], [35.0, 30.0], [35.0, 30.0], [35.0, 30.0]];[1, 0, 1, 1];36.0;0.0;0.0;1.0;1.0;4.0;1.0;16.0;17.0;1.0
18;1;1;2;17;0;14.0;test_freeview;18.0;5555.0;5555.0;freeview_timeup;[-645.0, -305.0];[35.0, 30.0];1.0;[292.0, 294.0];[35.0, 30.0];0.0;[[-475.0, -53.0], [305.0, 184.0]];[[35.0, 30.0], [35.0, 30.0]];[1, 1];34.0;0.0;0.0;1.0;1.0;2.0;1.0;17.0;18.0;1.0
19;0;0;4;3;0;14.0;test_freeview;19.0;5555.0;5555.0;freeview_timeup;[286.0, 63.0];[35.0, 30.0];0.0;[-477.0, 302.0];[35.0, 30.0];1.0;[[-294.0, -189.0], [-303.0, -74.0], [295.0, -169.0], [475.0, -315.0]];[[35.0, 30.0], [35.0, 30.0], [35.0, 30.0], [35.0, 30.0]];[1, 1, 1, 0];5.0;0.0;0.0;0.0;0.0;4.0;1.0;18.0;19.0;1.0
20;0;0;2;2;0;14.0;test_freeview;20.0;5555.0;5555.0;freeview_timeup;[641.0, -181.0];[35.0, 30.0];0.0;[-299.0, -288.0];[35.0, 30.0];0.0;[[-634.0, -52.0], [464.0, 290.0]];[[35.0, 30.0], [35.0, 30.0]];[0, 0];3.0;0.0;0.0;0.0;0.0;2.0;1.0;19.0;20.0;1.0
21;1;0;4;8;0;14.0;test_freeview;21.0;5555.0;5555.0;freeview_timeup;[-464.0, 63.0];[35.0, 30.0];1.0;[625.0, -287.0];[35.0, 30.0];0.0;[[-642.0, 302.0], [-474.0, 296.0], [451.0, -60.0], [631.0, 167.0]];[[35.0, 30.0], [35.0, 30.0], [35.0, 30.0], [35.0, 30.0]];[1, 1, 0, 1];16.0;1.0;1.0;1.0;0.0;4.0;1.0;20.0;21.0;1.0
22;1;1;0;16;0;14.0;test_freeview;22.0;5555.0;5555.0;freeview_timeup;[-465.0, 314.0];[35.0, 30.0];0.0;[286.0, -183.0];[35.0, 30.0];0.0;[];[];[];31.0;1.0;1.0;1.0;1.0;0.0;1.0;21.0;22.0;1.0
23;1;0;8;9;0;14.0;test_freeview;23.0;5555.0;5555.0;freeview_timeup;[479.0, 61.0];[35.0, 30.0];1.0;[-299.0, 56.0];[35.0, 30.0];0.0;[[-636.0, -166.0], [-628.0, 72.0], [-462.0, 175.0], [-313.0, -184.0], [291.0, 183.0], [469.0, -178.0], [471.0, 305.0], [627.0, -315.0]];[[35.0, 30.0], [35.0, 30.0], [35.0, 30.0], [35.0, 30.0], [35.0, 30.0], [35.0, 30.0], [35.0, 30.0], [35.0, 30.0]];[0, 1, 1, 1, 0, 1, 1, 1];18.0;1.0;1.0;1.0;0.0;8.0;1.0;22.0;23.0;1.0
24;1;0;0;6;0;14.0;test_freeview;24.0;5555.0;5555.0;freeview_timeup;[-462.0, 192.0];[35.0, 30.0];1.0;[627.0, -66.0];[35.0, 30.0];0.0;[];[];[];12.0;1.0;1.0;1.0;0.0;0.0;1.0;23.0;24.0;1.0
25;1;0;16;10;0;14.0;test_freeview;25.0;5555.0;5555.0;freeview_timeup;[470.0, 180.0];[35.0, 30.0];1.0;[-639.0, 192.0];[35.0, 30.0];0.0;[[-643.0, -306.0], [-621.0, -59.0], [-474.0, -166.0], [-474.0, -69.0], [-469.0, 50.0], [-458.0, 188.0], [-288.0, 187.0], [-298.0, 312.0], [286.0, 178.0], [465.0, -176.0], [474.0, 55.0], [470.0, 307.0], [624.0, -287.0], [620.0, 66.0], [616.0, 174.0], [642.0, 298.0]];[[35.0, 30.0], [35.0, 30.0], [35.0, 30.0], [35.0, 30.0], [35.0, 30.0], [35.0, 30.0], [35.0, 30.0], [35.0, 30.0], [35.0, 30.0], [35.0, 30.0], [35.0, 30.0], [35.0, 30.0], [35.0, 30.0], [35.0, 30.0], [35.0, 30.0], [35.0, 30.0]];[0, 1, 1, 0, 0, 0, 0, 1, 0, 1, 0, 1, 0, 1, 0, 1];20.0;1.0;1.0;1.0;0.0;16.0;1.0;24.0;25.0;1.0
26;1;1;16;20;0;14.0;test_freeview;26.0;5555.0;5555.0;freeview_timeup;[300.0, 291.0];[35.0, 30.0];0.0;[-308.0, -313.0];[35.0, 30.0];1.0;[[-621.0, 56.0], [-634.0, 173.0], [-479.0, -313.0], [-461.0, -189.0], [-473.0, -65.0], [-453.0, 184.0], [-295.0, -61.0], [-290.0, 178.0], [302.0, -182.0], [288.0, -67.0], [303.0, 191.0], [466.0, -293.0], [461.0, -191.0], [458.0, 308.0], [635.0, -310.0], [636.0, 172.0]];[[35.0, 30.0], [35.0, 30.0], [35.0, 30.0], [35.0, 30.0], [35.0, 30.0], [35.0, 30.0], [35.0, 30.0], [35.0, 30.0], [35.0, 30.0], [35.0, 30.0], [35.0, 30.0], [35.0, 30.0], [35.0, 30.0], [35.0, 30.0], [35.0, 30.0], [35.0, 30.0]];[0, 1, 1, 0, 1, 1, 1, 1, 1, 0, 1, 0, 1, 0, 1, 1];39.0;1.0;1.0;1.0;1.0;16.0;1.0;25.0;26.0;1.0
27;0;0;16;5;0;14.0;test_freeview;27.0;5555.0;5555.0;freeview_timeup;[-301.0, 67.0];[35.0, 30.0];1.0;[632.0, 53.0];[35.0, 30.0];0.0;[[-616.0, -64.0], [-636.0, 51.0], [-643.0, 171.0], [-616.0, 299.0], [-477.0, 74.0], [-458.0, 290.0], [-312.0, -310.0], [-309.0, -186.0], [294.0, -59.0], [285.0, 172.0], [297.0, 294.0], [468.0, -301.0], [455.0, -64.0], [478.0, 186.0], [479.0, 307.0], [623.0, -286.0]];[[35.0, 30.0], [35.0, 30.0], [35.0, 30.0], [35.0, 30.0], [35.0, 30.0], [35.0, 30.0], [35.0, 30.0], [35.0, 30.0], [35.0, 30.0], [35.0, 30.0], [35.0, 30.0], [35.0, 30.0], [35.0, 30.0], [35.0, 30.0], [35.0, 30.0], [35.0, 30.0]];[0, 1, 1, 1, 1, 0, 1, 0, 1, 0, 0, 1, 0, 0, 0, 0];10.0;1.0;1.0;0.0;0.0;16.0;1.0;26.0;27.0;1.0
28;0;0;4;3;0;14.0;test_freeview;28.0;5555.0;5555.0;freeview_timeup;[309.0, 299.0];[35.0, 30.0];1.0;[-308.0, 66.0];[35.0, 30.0];0.0;[[-630.0, -190.0], [-642.0, 188.0], [477.0, 51.0], [617.0, 172.0]];[[35.0, 30.0], [35.0, 30.0], [35.0, 30.0], [35.0, 30.0]];[0, 1, 1, 0];6.0;1.0;1.0;0.0;0.0;4.0;1.0;27.0;28.0;1.0
29;0;0;2;2;0;14.0;test_freeview;29.0;5555.0;5555.0;freeview_timeup;[-476.0, 186.0];[35.0, 30.0];1.0;[310.0, 174.0];[35.0, 30.0];0.0;[[-456.0, -297.0], [632.0, -286.0]];[[35.0, 30.0], [35.0, 30.0]];[0, 1];4.0;1.0;1.0;0.0;0.0;2.0;1.0;28.0;29.0;1.0
30;0;1;4;13;0;14.0;test_freeview;30.0;5555.0;5555.0;freeview_timeup;[-476.0, 170.0];[35.0, 30.0];0.0;[629.0, 171.0];[35.0, 30.0];0.0;[[-635.0, -173.0], [-453.0, -186.0], [292.0, 45.0], [304.0, 285.0]];[[35.0, 30.0], [35.0, 30.0], [35.0, 30.0], [35.0, 30.0]];[0, 1, 0, 1];25.0;1.0;1.0;0.0;1.0;4.0;1.0;29.0;30.0;1.0
31;0;0;0;1;0;14.0;test_freeview;31.0;5555.0;5555.0;freeview_timeup;[450.0, -179.0];[35.0, 30.0];1.0;[-623.0, -294.0];[35.0, 30.0];0.0;[];[];[];2.0;1.0;1.0;0.0;0.0;0.0;1.0;30.0;31.0;1.0
32;1;1;8;19;0;14.0;test_freeview;32.0;5555.0;5555.0;freeview_timeup;[-287.0, 168.0];[35.0, 30.0];0.0;[473.0, 190.0];[35.0, 30.0];0.0;[[-632.0, -49.0], [-628.0, 69.0], [-298.0, -168.0], [-292.0, 47.0], [302.0, 60.0], [453.0, -55.0], [632.0, -49.0], [624.0, 61.0]];[[35.0, 30.0], [35.0, 30.0], [35.0, 30.0], [35.0, 30.0], [35.0, 30.0], [35.0, 30.0], [35.0, 30.0], [35.0, 30.0]];[0, 0, 0, 0, 0, 0, 1, 1];37.0;1.0;1.0;1.0;1.0;8.0;1.0;31.0;32.0;1.0
33;0;1;8;14;0;14.0;test_freeview;33.0;5555.0;5555.0;freeview_timeup;[302.0, 299.0];[35.0, 30.0];0.0;[-309.0, -315.0];[35.0, 30.0];1.0;[[-618.0, -47.0], [-624.0, 49.0], [-462.0, -312.0], [-465.0, 299.0], [305.0, -296.0], [474.0, -309.0], [453.0, 306.0], [632.0, 193.0]];[[35.0, 30.0], [35.0, 30.0], [35.0, 30.0], [35.0, 30.0], [35.0, 30.0], [35.0, 30.0], [35.0, 30.0], [35.0, 30.0]];[1, 1, 0, 0, 1, 0, 0, 0];27.0;1.0;1.0;0.0;1.0;8.0;1.0;32.0;33.0;1.0
34;1;1;2;17;0;14.0;test_freeview;34.0;5555.0;5555.0;freeview_timeup;[-305.0, -179.0];[35.0, 30.0];0.0;[633.0, -187.0];[35.0, 30.0];0.0;[[-287.0, -289.0], [476.0, -297.0]];[[35.0, 30.0], [35.0, 30.0]];[1, 0];33.0;1.0;1.0;1.0;1.0;2.0;1.0;33.0;34.0;1.0
35;0;1;2;12;0;14.0;test_freeview;35.0;5555.0;5555.0;freeview_timeup;[-627.0, -72.0];[35.0, 30.0];0.0;[303.0, -72.0];[35.0, 30.0];1.0;[[-618.0, -301.0], [292.0, -286.0]];[[35.0, 30.0], [35.0, 30.0]];[0, 1];23.0;1.0;1.0;0.0;1.0;2.0;1.0;34.0;35.0;1.0
36;0;1;0;11;0;14.0;test_freeview;36.0;5555.0;5555.0;freeview_timeup;[-466.0, 173.0];[35.0, 30.0];0.0;[642.0, 314.0];[35.0, 30.0];1.0;[];[];[];21.0;1.0;1.0;0.0;1.0;0.0;1.0;35.0;36.0;1.0
37;0;0;8;4;0;14.0;test_freeview;37.0;5555.0;5555.0;freeview_timeup;[621.0, 178.0];[35.0, 30.0];1.0;[-618.0, 54.0];[35.0, 30.0];0.0;[[-639.0, 170.0], [-461.0, -191.0], [-461.0, -48.0], [-315.0, -48.0], [290.0, 51.0], [313.0, 166.0], [460.0, -176.0], [475.0, 189.0]];[[35.0, 30.0], [35.0, 30.0], [35.0, 30.0], [35.0, 30.0], [35.0, 30.0], [35.0, 30.0], [35.0, 30.0], [35.0, 30.0]];[1, 0, 1, 1, 1, 0, 0, 1];8.0;1.0;1.0;0.0;0.0;8.0;1.0;36.0;37.0;1.0
38;0;1;16;15;0;14.0;test_freeview;38.0;5555.0;5555.0;freeview_timeup;[-298.0, -184.0];[35.0, 30.0];0.0;[296.0, 74.0];[35.0, 30.0];1.0;[[-631.0, -315.0], [-636.0, 56.0], [-626.0, 308.0], [-459.0, -292.0], [-471.0, -191.0], [-479.0, -46.0], [-307.0, 54.0], [-296.0, 186.0], [298.0, 298.0], [475.0, -50.0], [470.0, 66.0], [450.0, 185.0], [634.0, -295.0], [629.0, -173.0], [619.0, -52.0], [635.0, 71.0]];[[35.0, 30.0], [35.0, 30.0], [35.0, 30.0], [35.0, 30.0], [35.0, 30.0], [35.0, 30.0], [35.0, 30.0], [35.0, 30.0], [35.0, 30.0], [35.0, 30.0], [35.0, 30.0], [35.0, 30.0], [35.0, 30.0], [35.0, 30.0], [35.0, 30.0], [35.0, 30.0]];[0, 0, 1, 0, 0, 0, 0, 0, 1, 1, 1, 1, 0, 1, 0, 0];29.0;1.0;1.0;0.0;1.0;16.0;1.0;37.0;38.0;1.0
39;1;1;4;18;0;14.0;test_freeview;39.0;5555.0;5555.0;freeview_timeup;[-470.0, -307.0];[35.0, 30.0];0.0;[630.0, 72.0];[35.0, 30.0];0.0;[[-476.0, -189.0], [-463.0, -51.0], [300.0, -309.0], [307.0, -176.0]];[[35.0, 30.0], [35.0, 30.0], [35.0, 30.0], [35.0, 30.0]];[1, 1, 0, 1];35.0;1.0;1.0;1.0;1.0;4.0;1.0;38.0;39.0;1.0
40;1;0;2;7;0;14.0;test_freeview;40.0;5555.0;5555.0;freeview_timeup;[618.0, -67.0];[35.0, 30.0];1.0;[-457.0, -73.0];[35.0, 30.0];1.0;[[-313.0, -304.0], [469.0, 52.0]];[[35.0, 30.0], [35.0, 30.0]];[0, 0];14.0;1.0;1.0;1.0;0.0;2.0;1.0;39.0;40.0;1.0
41;1;0;2;7;0;14.0;test_freeview;41.0;5555.0;5555.0;freeview_timeup;[623.0, 300.0];[35.0, 30.0];0.0;[-466.0, -184.0];[35.0, 30.0];0.0;[[-295.0, 175.0], [472.0, -290.0]];[[35.0, 30.0], [35.0, 30.0]];[1, 1];53.0;2.0;2.0;1.0;0.0;2.0;1.0;40.0;41.0;1.0
42;1;1;16;20;0;14.0;test_freeview;42.0;5555.0;5555.0;freeview_timeup;[-470.0, -71.0];[35.0, 30.0];1.0;[464.0, -182.0];[35.0, 30.0];1.0;[[-636.0, -293.0], [-626.0, -60.0], [-618.0, 174.0], [-459.0, -308.0], [-479.0, 69.0], [-463.0, 192.0], [-308.0, -286.0], [-314.0, -72.0], [314.0, -297.0], [292.0, -174.0], [299.0, -63.0], [293.0, 173.0], [473.0, -52.0], [627.0, -190.0], [619.0, 70.0], [642.0, 166.0]];[[35.0, 30.0], [35.0, 30.0], [35.0, 30.0], [35.0, 30.0], [35.0, 30.0], [35.0, 30.0], [35.0, 30.0], [35.0, 30.0], [35.0, 30.0], [35.0, 30.0], [35.0, 30.0], [35.0, 30.0], [35.0, 30.0], [35.0, 30.0], [35.0, 30.0], [35.0, 30.0]];[0, 1, 0, 1, 0, 0, 1, 0, 0, 1, 1, 1, 0, 0, 1, 0];80.0;2.0;2.0;1.0;1.0;16.0;1.0;41.0;42.0;1.0
43;1;0;16;10;0;14.0;test_freeview;43.0;5555.0;5555.0;freeview_timeup;[-286.0, 311.0];[35.0, 30.0];0.0;[630.0, 45.0];[35.0, 30.0];1.0;[[-640.0, -173.0], [-617.0, 302.0], [-473.0, -186.0], [-468.0, 54.0], [-451.0, 286.0], [-288.0, -315.0], [-315.0, -194.0], [-308.0, -65.0], [289.0, -304.0], [288.0, -67.0], [300.0, 296.0], [478.0, -63.0], [459.0, 72.0], [455.0, 308.0], [631.0, -49.0], [628.0, 187.0]];[[35.0, 30.0], [35.0, 30.0], [35.0, 30.0], [35.0, 30.0], [35.0, 30.0], [35.0, 30.0], [35.0, 30.0], [35.0, 30.0], [35.0, 30.0], [35.0, 30.0], [35.0, 30.0], [35.0, 30.0], [35.0, 30.0], [35.0, 30.0], [35.0, 30.0], [35.0, 30.0]];[1, 0, 0, 0, 0, 1, 1, 0, 0, 0, 0, 0, 0, 1, 0, 0];59.0;2.0;2.0;1.0;0.0;16.0;1.0;42.0;43.0;1.0
44;1;0;8;9;0;14.0;test_freeview;44.0;5555.0;5555.0;freeview_timeup;[306.0, -179.0];[35.0, 30.0];0.0;[-452.0, -47.0];[35.0, 30.0];0.0;[[-637.0, -292.0], [-456.0, 63.0], [-467.0, 178.0], [-299.0, -289.0], [294.0, 191.0], [473.0, -47.0], [634.0, 73.0], [621.0, 166.0]];[[35.0, 30.0], [35.0, 30.0], [35.0, 30.0], [35.0, 30.0], [35.0, 30.0], [35.0, 30.0], [35.0, 30.0], [35.0, 30.0]];[1, 0, 0, 0, 1, 0, 1, 0];57.0;2.0;2.0;1.0;0.0;8.0;1.0;43.0;44.0;1.0
45;1;1;8;19;0;14.0;test_freeview;45.0;5555.0;5555.0;freeview_timeup;[458.0, 61.0];[35.0, 30.0];1.0;[-626.0, -299.0];[35.0, 30.0];1.0;[[-617.0, 55.0], [-622.0, 305.0], [-478.0, 310.0], [-294.0, -173.0], [290.0, 186.0], [458.0, -171.0], [644.0, -301.0], [632.0, -187.0]];[[35.0, 30.0], [35.0, 30.0], [35.0, 30.0], [35.0, 30.0], [35.0, 30.0], [35.0, 30.0], [35.0, 30.0], [35.0, 30.0]];[0, 0, 0, 1, 1, 0, 0, 1];78.0;2.0;2.0;1.0;1.0;8.0;1.0;44.0;45.0;1.0
46;1;1;4;18;0;14.0;test_freeview;46.0;5555.0;5555.0;freeview_timeup;[-315.0, 59.0];[35.0, 30.0];1.0;[630.0, -168.0];[35.0, 30.0];0.0;[[-617.0, -297.0], [-468.0, 194.0], [313.0, 74.0], [637.0, 62.0]];[[35.0, 30.0], [35.0, 30.0], [35.0, 30.0], [35.0, 30.0]];[0, 1, 0, 0];76.0;2.0;2.0;1.0;1.0;4.0;1.0;45.0;46.0;1.0
47;0;0;4;3;0;14.0;test_freeview;47.0;5555.0;5555.0;freeview_timeup;[-460.0, -56.0];[35.0, 30.0];0.0;[461.0, 191.0];[35.0, 30.0];0.0;[[-644.0, 296.0], [-305.0, 58.0], [298.0, 314.0], [631.0, 61.0]];[[35.0, 30.0], [35.0, 30.0], [35.0, 30.0], [35.0, 30.0]];[1, 1, 0, 0];45.0;2.0;2.0;0.0;0.0;4.0;1.0;46.0;47.0;1.0
48;0;0;0;1;0;14.0;test_freeview;48.0;5555.0;5555.0;freeview_timeup;[-475.0, -190.0];[35.0, 30.0];0.0;[629.0, 297.0];[35.0, 30.0];0.0;[];[];[];41.0;2.0;2.0;0.0;0.0;0.0;1.0;47.0;48.0;1.0
49;0;1;0;11;0;14.0;test_freeview;49.0;5555.0;5555.0;freeview_timeup;[-632.0, 292.0];[35.0, 30.0];1.0;[304.0, 50.0];[35.0, 30.0];1.0;[];[];[];62.0;2.0;2.0;0.0;1.0;0.0;1.0;48.0;49.0;1.0
50;0;1;4;13;0;14.0;test_freeview;50.0;5555.0;5555.0;freeview_timeup;[631.0, -60.0];[35.0, 30.0];1.0;[-305.0, 73.0];[35.0, 30.0];0.0;[[-644.0, -309.0], [-312.0, -293.0], [454.0, 58.0], [633.0, -188.0]];[[35.0, 30.0], [35.0, 30.0], [35.0, 30.0], [35.0, 30.0]];[1, 1, 0, 1];66.0;2.0;2.0;0.0;1.0;4.0;1.0;49.0;50.0;1.0
51;0;0;16;5;0;14.0;test_freeview;51.0;5555.0;5555.0;freeview_timeup;[-624.0, 169.0];[35.0, 30.0];0.0;[298.0, 192.0];[35.0, 30.0];1.0;[[-623.0, -295.0], [-616.0, -171.0], [-629.0, -58.0], [-645.0, 71.0], [-473.0, 68.0], [-299.0, -308.0], [-311.0, 177.0], [-313.0, 300.0], [310.0, -297.0], [300.0, -187.0], [285.0, 54.0], [453.0, 45.0], [617.0, -182.0], [619.0, -47.0], [616.0, 165.0], [616.0, 312.0]];[[35.0, 30.0], [35.0, 30.0], [35.0, 30.0], [35.0, 30.0], [35.0, 30.0], [35.0, 30.0], [35.0, 30.0], [35.0, 30.0], [35.0, 30.0], [35.0, 30.0], [35.0, 30.0], [35.0, 30.0], [35.0, 30.0], [35.0, 30.0], [35.0, 30.0], [35.0, 30.0]];[0, 0, 0, 1, 0, 1, 1, 1, 1, 1, 1, 0, 1, 0, 1, 0];49.0;2.0;2.0;0.0;0.0;16.0;1.0;50.0;51.0;1.0
52;0;1;2;12;0;14.0;test_freeview;52.0;5555.0;5555.0;freeview_timeup;[619.0, -69.0];[35.0, 30.0];1.0;[-288.0, -52.0];[35.0, 30.0];1.0;[[-456.0, 61.0], [628.0, -177.0]];[[35.0, 30.0], [35.0, 30.0]];[0, 0];64.0;2.0;2.0;0.0;1.0;2.0;1.0;51.0;52.0;1.0
53;0;0;8;4;0;14.0;test_freeview;53.0;5555.0;5555.0;freeview_timeup;[-303.0, -314.0];[35.0, 30.0];0.0;[300.0, -47.0];[35.0, 30.0];1.0;[[-633.0, 286.0], [-470.0, -297.0], [-460.0, -177.0], [-479.0, -56.0], [303.0, 287.0], [466.0, 188.0], [624.0, -305.0], [635.0, -166.0]];[[35.0, 30.0], [35.0, 30.0], [35.0, 30.0], [35.0, 30.0], [35.0, 30.0], [35.0, 30.0], [35.0, 30.0], [35.0, 30.0]];[0, 0, 0, 1, 1, 1, 0, 1];47.0;2.0;2.0;0.0;0.0;8.0;1.0;52.0;53.0;1.0
54;0;1;8;14;0;14.0;test_freeview;54.0;5555.0;5555.0;freeview_timeup;[472.0, 178.0];[35.0, 30.0];1.0;[-301.0, 305.0];[35.0, 30.0];0.0;[[-637.0, -304.0], [-636.0, -169.0], [-622.0, 73.0], [-460.0, 189.0], [291.0, -307.0], [298.0, 69.0], [302.0, 288.0], [618.0, 190.0]];[[35.0, 30.0], [35.0, 30.0], [35.0, 30.0], [35.0, 30.0], [35.0, 30.0], [35.0, 30.0], [35.0, 30.0], [35.0, 30.0]];[0, 0, 0, 1, 0, 0, 0, 0];68.0;2.0;2.0;0.0;1.0;8.0;1.0;53.0;54.0;1.0
55;0;1;16;15;0;14.0;test_freeview;55.0;5555.0;5555.0;freeview_timeup;[-315.0, 311.0];[35.0, 30.0];1.0;[477.0, 193.0];[35.0, 30.0];1.0;[[-628.0, -302.0], [-619.0, -74.0], [-627.0, 305.0], [-475.0, -306.0], [-460.0, 295.0], [-297.0, -312.0], [-298.0, 60.0], [-300.0, 186.0], [307.0, -306.0], [300.0, -189.0], [302.0, 307.0], [469.0, -55.0], [474.0, 69.0], [472.0, 306.0], [638.0, -182.0], [618.0, 48.0]];[[35.0, 30.0], [35.0, 30.0], [35.0, 30.0], [35.0, 30.0], [35.0, 30.0], [35.0, 30.0], [35.0, 30.0], [35.0, 30.0], [35.0, 30.0], [35.0, 30.0], [35.0, 30.0], [35.0, 30.0], [35.0, 30.0], [35.0, 30.0], [35.0, 30.0], [35.0, 30.0]];[0, 1, 0, 0, 1, 0, 1, 0, 1, 0, 1, 1, 0, 1, 1, 1];70.0;2.0;2.0;0.0;1.0;16.0;1.0;54.0;55.0;1.0
56;1;1;2;17;0;14.0;test_freeview;56.0;5555.0;5555.0;freeview_timeup;[-627.0, 311.0];[35.0, 30.0];1.0;[620.0, 186.0];[35.0, 30.0];1.0;[[-309.0, -52.0], [469.0, -55.0]];[[35.0, 30.0], [35.0, 30.0]];[0, 1];74.0;2.0;2.0;1.0;1.0;2.0;1.0;55.0;56.0;1.0
57;1;0;4;8;0;14.0;test_freeview;57.0;5555.0;5555.0;freeview_timeup;[-471.0, -293.0];[35.0, 30.0];0.0;[623.0, 302.0];[35.0, 30.0];1.0;[[-455.0, 310.0], [-305.0, 187.0], [619.0, -175.0], [624.0, -48.0]];[[35.0, 30.0], [35.0, 30.0], [35.0, 30.0], [35.0, 30.0]];[1, 0, 0, 1];55.0;2.0;2.0;1.0;0.0;4.0;1.0;56.0;57.0;1.0
58;1;0;0;6;0;14.0;test_freeview;58.0;5555.0;5555.0;freeview_timeup;[462.0, -56.0];[35.0, 30.0];0.0;[-468.0, 296.0];[35.0, 30.0];0.0;[];[];[];51.0;2.0;2.0;1.0;0.0;0.0;1.0;57.0;58.0;1.0
59;0;0;2;2;0;14.0;test_freeview;59.0;5555.0;5555.0;freeview_timeup;[630.0, -291.0];[35.0, 30.0];0.0;[-454.0, -297.0];[35.0, 30.0];1.0;[[-455.0, -70.0], [479.0, 174.0]];[[35.0, 30.0], [35.0, 30.0]];[1, 0];43.0;2.0;2.0;0.0;0.0;2.0;1.0;58.0;59.0;1.0
60;1;1;0;16;0;14.0;test_freeview;60.0;5555.0;5555.0;freeview_timeup;[-308.0, -177.0];[35.0, 30.0];1.0;[309.0, -166.0];[35.0, 30.0];1.0;[];[];[];72.0;2.0;2.0;1.0;1.0;0.0;1.0;59.0;60.0;1.0
61;1;0;8;9;0;14.0;test_freeview;61.0;5555.0;5555.0;freeview_timeup;[627.0, 56.0];[35.0, 30.0];1.0;[-299.0, 166.0];[35.0, 30.0];0.0;[[-626.0, 60.0], [-626.0, 177.0], [-300.0, -193.0], [-290.0, -49.0], [310.0, -187.0], [466.0, -70.0], [624.0, -299.0], [624.0, -52.0]];[[35.0, 30.0], [35.0, 30.0], [35.0, 30.0], [35.0, 30.0], [35.0, 30.0], [35.0, 30.0], [35.0, 30.0], [35.0, 30.0]];[1, 0, 1, 0, 1, 0, 1, 0];58.0;3.0;3.0;1.0;0.0;8.0;1.0;60.0;1.0;2.0
62;0;1;2;12;0;14.0;test_freeview;62.0;5555.0;5555.0;freeview_timeup;[311.0, -289.0];[35.0, 30.0];0.0;[-476.0, -297.0];[35.0, 30.0];1.0;[[-479.0, -186.0], [308.0, -183.0]];[[35.0, 30.0], [35.0, 30.0]];[1, 0];63.0;3.0;3.0;0.0;1.0;2.0;1.0;61.0;2.0;2.0
63;0;0;8;4;0;14.0;test_freeview;63.0;5555.0;5555.0;freeview_timeup;[450.0, 297.0];[35.0, 30.0];1.0;[-314.0, 285.0];[35.0, 30.0];1.0;[[-471.0, -186.0], [-461.0, -61.0], [-309.0, -309.0], [-314.0, 63.0], [287.0, 305.0], [463.0, -67.0], [631.0, -303.0], [627.0, 165.0]];[[35.0, 30.0], [35.0, 30.0], [35.0, 30.0], [35.0, 30.0], [35.0, 30.0], [35.0, 30.0], [35.0, 30.0], [35.0, 30.0]];[0, 0, 1, 1, 1, 1, 0, 1];48.0;3.0;3.0;0.0;0.0;8.0;1.0;62.0;3.0;2.0
64;1;1;16;20;0;14.0;test_freeview;64.0;5555.0;5555.0;freeview_timeup;[-465.0, -297.0];[35.0, 30.0];0.0;[633.0, 55.0];[35.0, 30.0];0.0;[[-616.0, 62.0], [-619.0, 183.0], [-645.0, 291.0], [-463.0, -46.0], [-456.0, 190.0], [-457.0, 298.0], [-304.0, -298.0], [-291.0, 73.0], [303.0, -298.0], [310.0, -167.0], [302.0, -53.0], [455.0, -175.0], [474.0, -62.0], [454.0, 63.0], [617.0, -55.0], [632.0, 177.0]];[[35.0, 30.0], [35.0, 30.0], [35.0, 30.0], [35.0, 30.0], [35.0, 30.0], [35.0, 30.0], [35.0, 30.0], [35.0, 30.0], [35.0, 30.0], [35.0, 30.0], [35.0, 30.0], [35.0, 30.0], [35.0, 30.0], [35.0, 30.0], [35.0, 30.0], [35.0, 30.0]];[1, 1, 0, 0, 0, 0, 0, 1, 0, 1, 0, 1, 0, 1, 0, 0];79.0;3.0;3.0;1.0;1.0;16.0;1.0;63.0;4.0;2.0
65;0;0;4;3;0;14.0;test_freeview;65.0;5555.0;5555.0;freeview_timeup;[618.0, -290.0];[35.0, 30.0];1.0;[-621.0, 308.0];[35.0, 30.0];0.0;[[-623.0, -189.0], [-643.0, -71.0], [311.0, 301.0], [475.0, -57.0]];[[35.0, 30.0], [35.0, 30.0], [35.0, 30.0], [35.0, 30.0]];[0, 0, 0, 1];46.0;3.0;3.0;0.0;0.0;4.0;1.0;64.0;5.0;2.0
66;0;0;16;5;0;14.0;test_freeview;66.0;5555.0;5555.0;freeview_timeup;[-618.0, 184.0];[35.0, 30.0];1.0;[629.0, 63.0];[35.0, 30.0];1.0;[[-641.0, -314.0], [-622.0, -181.0], [-628.0, -58.0], [-451.0, -295.0], [-455.0, -191.0], [-477.0, -48.0], [-470.0, 55.0], [-290.0, 182.0], [285.0, -296.0], [286.0, 172.0], [308.0, 302.0], [465.0, -287.0], [467.0, 66.0], [463.0, 170.0], [624.0, -309.0], [625.0, 177.0]];[[35.0, 30.0], [35.0, 30.0], [35.0, 30.0], [35.0, 30.0], [35.0, 30.0], [35.0, 30.0], [35.0, 30.0], [35.0, 30.0], [35.0, 30.0], [35.0, 30.0], [35.0, 30.0], [35.0, 30.0], [35.0, 30.0], [35.0, 30.0], [35.0, 30.0], [35.0, 30.0]];[0, 1, 0, 1, 0, 0, 0, 1, 1, 0, 1, 1, 1, 1, 1, 1];50.0;3.0;3.0;0.0;0.0;16.0;1.0;65.0;6.0;2.0
67;1;1;2;17;0;14.0;test_freeview;67.0;5555.0;5555.0;freeview_timeup;[-297.0, -48.0];[35.0, 30.0];0.0;[621.0, 172.0];[35.0, 30.0];1.0;[[-290.0, 67.0], [616.0, -60.0]];[[35.0, 30.0], [35.0, 30.0]];[1, 1];73.0;3.0;3.0;1.0;1.0;2.0;1.0;66.0;7.0;2.0
68;0;1;0;11;0;14.0;test_freeview;68.0;5555.0;5555.0;freeview_timeup;[-458.0, 186.0];[35.0, 30.0];0.0;[638.0, -181.0];[35.0, 30.0];1.0;[];[];[];61.0;3.0;3.0;0.0;1.0;0.0;1.0;67.0;8.0;2.0
69;1;0;4;8;0;14.0;test_freeview;69.0;5555.0;5555.0;freeview_timeup;[299.0, 311.0];[35.0, 30.0];1.0;[-314.0, -172.0];[35.0, 30.0];0.0;[[-634.0, -170.0], [-475.0, 65.0], [299.0, 169.0], [456.0, -193.0]];[[35.0, 30.0], [35.0, 30.0], [35.0, 30.0], [35.0, 30.0]];[1, 1, 1, 0];56.0;3.0;3.0;1.0;0.0;4.0;1.0;68.0;9.0;2.0
70;0;1;8;14;0;14.0;test_freeview;70.0;5555.0;5555.0;freeview_timeup;[464.0, 191.0];[35.0, 30.0];0.0;[-289.0, 287.0];[35.0, 30.0];0.0;[[-632.0, -58.0], [-464.0, -194.0], [-479.0, 298.0], [-294.0, 54.0], [294.0, -286.0], [291.0, 285.0], [633.0, -57.0], [618.0, 55.0]];[[35.0, 30.0], [35.0, 30.0], [35.0, 30.0], [35.0, 30.0], [35.0, 30.0], [35.0, 30.0], [35.0, 30.0], [35.0, 30.0]];[1, 0, 1, 1, 0, 1, 1, 0];67.0;3.0;3.0;0.0;1.0;8.0;1.0;69.0;10.0;2.0
71;0;0;0;1;0;14.0;test_freeview;71.0;5555.0;5555.0;freeview_timeup;[-638.0, -307.0];[35.0, 30.0];1.0;[454.0, 192.0];[35.0, 30.0];0.0;[];[];[];42.0;3.0;3.0;0.0;0.0;0.0;1.0;70.0;11.0;2.0
72;0;1;4;13;0;14.0;test_freeview;72.0;5555.0;5555.0;freeview_timeup;[-637.0, 181.0];[35.0, 30.0];0.0;[296.0, -179.0];[35.0, 30.0];1.0;[[-471.0, 72.0], [-291.0, 72.0], [304.0, -59.0], [632.0, 64.0]];[[35.0, 30.0], [35.0, 30.0], [35.0, 30.0], [35.0, 30.0]];[0, 0, 0, 0];65.0;3.0;3.0;0.0;1.0;4.0;1.0;71.0;12.0;2.0
73;1;1;8;19;0;14.0;test_freeview;73.0;5555.0;5555.0;freeview_timeup;[631.0, 175.0];[35.0, 30.0];0.0;[-297.0, -62.0];[35.0, 30.0];1.0;[[-467.0, -305.0], [-453.0, -64.0], [-468.0, 310.0], [-314.0, 178.0], [293.0, 165.0], [455.0, -170.0], [461.0, -74.0], [637.0, -183.0]];[[35.0, 30.0], [35.0, 30.0], [35.0, 30.0], [35.0, 30.0], [35.0, 30.0], [35.0, 30.0], [35.0, 30.0], [35.0, 30.0]];[0, 0, 1, 1, 1, 1, 0, 1];77.0;3.0;3.0;1.0;1.0;8.0;1.0;72.0;13.0;2.0
74;0;0;2;2;0;14.0;test_freeview;74.0;5555.0;5555.0;freeview_timeup;[467.0, -74.0];[35.0, 30.0];1.0;[-470.0, -287.0];[35.0, 30.0];0.0;[[-475.0, 312.0], [474.0, -187.0]];[[35.0, 30.0], [35.0, 30.0]];[1, 0];44.0;3.0;3.0;0.0;0.0;2.0;1.0;73.0;14.0;2.0
75;0;1;16;15;0;14.0;test_freeview;75.0;5555.0;5555.0;freeview_timeup;[450.0, -46.0];[35.0, 30.0];0.0;[-622.0, 59.0];[35.0, 30.0];1.0;[[-634.0, -290.0], [-477.0, -292.0], [-475.0, 48.0], [-462.0, 184.0], [-305.0, -305.0], [-298.0, -57.0], [-291.0, 71.0], [-303.0, 193.0], [306.0, -314.0], [310.0, -193.0], [292.0, -63.0], [303.0, 71.0], [297.0, 179.0], [468.0, 168.0], [471.0, 294.0], [638.0, -187.0]];[[35.0, 30.0], [35.0, 30.0], [35.0, 30.0], [35.0, 30.0], [35.0, 30.0], [35.0, 30.0], [35.0, 30.0], [35.0, 30.0], [35.0, 30.0], [35.0, 30.0], [35.0, 30.0], [35.0, 30.0], [35.0, 30.0], [35.0, 30.0], [35.0, 30.0], [35.0, 30.0]];[0, 1, 0, 1, 1, 0, 0, 1, 0, 1, 0, 0, 1, 1, 0, 1];69.0;3.0;3.0;0.0;1.0;16.0;1.0;74.0;15.0;2.0
76;1;0;0;6;0;14.0;test_freeview;76.0;5555.0;5555.0;freeview_timeup;[631.0, 301.0];[35.0, 30.0];1.0;[-307.0, -289.0];[35.0, 30.0];0.0;[];[];[];52.0;3.0;3.0;1.0;0.0;0.0;1.0;75.0;16.0;2.0
77;1;0;16;10;0;14.0;test_freeview;77.0;5555.0;5555.0;freeview_timeup;[302.0, 302.0];[35.0, 30.0];1.0;[-471.0, -303.0];[35.0, 30.0];0.0;[[-625.0, -291.0], [-466.0, -75.0], [-451.0, 51.0], [-460.0, 183.0], [-472.0, 308.0], [-288.0, -294.0], [-298.0, 178.0], [-307.0, 301.0], [285.0, 71.0], [304.0, 165.0], [479.0, -314.0], [476.0, 175.0], [466.0, 296.0], [620.0, -293.0], [626.0, 52.0], [644.0, 294.0]];[[35.0, 30.0], [35.0, 30.0], [35.0, 30.0], [35.0, 30.0], [35.0, 30.0], [35.0, 30.0], [35.0, 30.0], [35.0, 30.0], [35.0, 30.0], [35.0, 30.0], [35.0, 30.0], [35.0, 30.0], [35.0, 30.0], [35.0, 30.0], [35.0, 30.0], [35.0, 30.0]];[1, 1, 0, 1, 1, 1, 0, 1, 1, 0, 1, 1, 1, 0, 1, 0];60.0;3.0;3.0;1.0;0.0;16.0;1.0;76.0;17.0;2.0
78;1;1;4;18;0;14.0;test_freeview;78.0;5555.0;5555.0;freeview_timeup;[641.0, 289.0];[35.0, 30.0];0.0;[-302.0, -63.0];[35.0, 30.0];0.0;[[-626.0, -291.0], [-460.0, -59.0], [298.0, 314.0], [468.0, 300.0]];[[35.0, 30.0], [35.0, 30.0], [35.0, 30.0], [35.0, 30.0]];[1, 1, 1, 0];75.0;3.0;3.0;1.0;1.0;4.0;1.0;77.0;18.0;2.0
79;1;1;0;16;0;14.0;test_freeview;79.0;5555.0;5555.0;freeview_timeup;[-637.0, -60.0];[35.0, 30.0];0.0;[477.0, 174.0];[35.0, 30.0];0.0;[];[];[];71.0;3.0;3.0;1.0;1.0;0.0;1.0;78.0;19.0;2.0
80;1;0;2;7;0;14.0;test_freeview;80.0;5555.0;5555.0;freeview_timeup;[616.0, -304.0];[35.0, 30.0];1.0;[-626.0, -296.0];[35.0, 30.0];0.0;[[-304.0, 45.0], [293.0, 54.0]];[[35.0, 30.0], [35.0, 30.0]];[0, 1];54.0;3.0;3.0;1.0;0.0;2.0;1.0;79.0;20.0;2.0
81;1;1;2;17;0;14.0;test_freeview;81.0;5555.0;5555.0;freeview_timeup;[-477.0, -286.0];[35.0, 30.0];1.0;[314.0, 50.0];[35.0, 30.0];0.0;[[-624.0, 312.0], [309.0, -299.0]];[[35.0, 30.0], [35.0, 30.0]];[1, 1];114.0;4.0;4.0;1.0;1.0;2.0;1.0;80.0;21.0;2.0
82;0;1;8;14;0;14.0;test_freeview;82.0;5555.0;5555.0;freeview_timeup;[626.0, 192.0];[35.0, 30.0];1.0;[-638.0, 61.0];[35.0, 30.0];0.0;[[-621.0, -195.0], [-644.0, 166.0], [-464.0, 61.0], [-451.0, 291.0], [301.0, -286.0], [304.0, -59.0], [639.0, -190.0], [617.0, -57.0]];[[35.0, 30.0], [35.0, 30.0], [35.0, 30.0], [35.0, 30.0], [35.0, 30.0], [35.0, 30.0], [35.0, 30.0], [35.0, 30.0]];[1, 1, 1, 1, 1, 1, 0, 1];108.0;4.0;4.0;0.0;1.0;8.0;1.0;81.0;22.0;2.0
83;1;1;4;18;0;14.0;test_freeview;83.0;5555.0;5555.0;freeview_timeup;[-622.0, -51.0];[35.0, 30.0];1.0;[465.0, 176.0];[35.0, 30.0];1.0;[[-634.0, 69.0], [-303.0, -180.0], [311.0, -170.0], [455.0, -174.0]];[[35.0, 30.0], [35.0, 30.0], [35.0, 30.0], [35.0, 30.0]];[1, 0, 0, 1];116.0;4.0;4.0;1.0;1.0;4.0;1.0;82.0;23.0;2.0
84;1;1;16;20;0;14.0;test_freeview;84.0;5555.0;5555.0;freeview_timeup;[-456.0, 190.0];[35.0, 30.0];1.0;[302.0, 170.0];[35.0, 30.0];1.0;[[-622.0, -311.0], [-624.0, -190.0], [-643.0, -52.0], [-451.0, -171.0], [-452.0, -58.0], [-292.0, -313.0], [-305.0, -187.0], [-292.0, 303.0], [290.0, -314.0], [305.0, -187.0], [294.0, -74.0], [452.0, 65.0], [632.0, -178.0], [641.0, 68.0], [621.0, 192.0], [626.0, 287.0]];[[35.0, 30.0], [35.0, 30.0], [35.0, 30.0], [35.0, 30.0], [35.0, 30.0], [35.0, 30.0], [35.0, 30.0], [35.0, 30.0], [35.0, 30.0], [35.0, 30.0], [35.0, 30.0], [35.0, 30.0], [35.0, 30.0], [35.0, 30.0], [35.0, 30.0], [35.0, 30.0]];[1, 1, 0, 1, 1, 1, 0, 1, 1, 1, 0, 0, 1, 1, 0, 1];120.0;4.0;4.0;1.0;1.0;16.0;1.0;83.0;24.0;2.0
85;1;0;8;9;0;14.0;test_freeview;85.0;5555.0;5555.0;freeview_timeup;[471.0, 72.0];[35.0, 30.0];0.0;[-622.0, 64.0];[35.0, 30.0];1.0;[[-643.0, -308.0], [-641.0, 290.0], [-457.0, 65.0], [-308.0, -61.0], [302.0, -300.0], [304.0, 191.0], [296.0, 287.0], [643.0, -304.0]];[[35.0, 30.0], [35.0, 30.0], [35.0, 30.0], [35.0, 30.0], [35.0, 30.0], [35.0, 30.0], [35.0, 30.0], [35.0, 30.0]];[0, 1, 1, 0, 0, 0, 1, 0];97.0;4.0;4.0;1.0;0.0;8.0;1.0;84.0;25.0;2.0
86;0;0;0;1;0;14.0;test_freeview;86.0;5555.0;5555.0;freeview_timeup;[-289.0, 58.0];[35.0, 30.0];0.0;[642.0, 58.0];[35.0, 30.0];1.0;[];[];[];81.0;4.0;4.0;0.0;0.0;0.0;1.0;85.0;26.0;2.0
87;0;1;16;15;0;14.0;test_freeview;87.0;5555.0;5555.0;freeview_timeup;[-466.0, 166.0];[35.0, 30.0];1.0;[475.0, -62.0];[35.0, 30.0];0.0;[[-619.0, -177.0], [-457.0, -292.0], [-479.0, -60.0], [-459.0, 66.0], [-480.0, 310.0], [-289.0, -302.0], [-296.0, -181.0], [-305.0, -53.0], [287.0, -178.0], [290.0, -67.0], [456.0, 66.0], [461.0, 179.0], [627.0, -178.0], [619.0, -63.0], [643.0, 56.0], [633.0, 172.0]];[[35.0, 30.0], [35.0, 30.0], [35.0, 30.0], [35.0, 30.0], [35.0, 30.0], [35.0, 30.0], [35.0, 30.0], [35.0, 30.0], [35.0, 30.0], [35.0, 30.0], [35.0, 30.0], [35.0, 30.0], [35.0, 30.0], [35.0, 30.0], [35.0, 30.0], [35.0, 30.0]];[1, 0, 1, 1, 0, 0, 1, 1, 0, 1, 0, 1, 1, 0, 0, 1];110.0;4.0;4.0;0.0;1.0;16.0;1.0;86.0;27.0;2.0
88;0;1;4;13;0;14.0;test_freeview;88.0;5555.0;5555.0;freeview_timeup;[-620.0, 184.0];[35.0, 30.0];1.0;[636.0, -63.0];[35.0, 30.0];0.0;[[-478.0, -170.0], [-303.0, 182.0], [454.0, -68.0], [478.0, 287.0]];[[35.0, 30.0], [35.0, 30.0], [35.0, 30.0], [35.0, 30.0]];[1, 1, 1, 0];106.0;4.0;4.0;0.0;1.0;4.0;1.0;87.0;28.0;2.0
89;0;1;2;12;0;14.0;test_freeview;89.0;5555.0;5555.0;freeview_timeup;[-642.0, -70.0];[35.0, 30.0];1.0;[619.0, 309.0];[35.0, 30.0];1.0;[[-465.0, -297.0], [468.0, 312.0]];[[35.0, 30.0], [35.0, 30.0]];[0, 0];104.0;4.0;4.0;0.0;1.0;2.0;1.0;88.0;29.0;2.0
90;1;1;0;16;0;14.0;test_freeview;90.0;5555.0;5555.0;freeview_timeup;[-463.0, 291.0];[35.0, 30.0];1.0;[306.0, -293.0];[35.0, 30.0];1.0;[];[];[];112.0;4.0;4.0;1.0;1.0;0.0;1.0;89.0;30.0;2.0
91;1;0;2;7;0;14.0;test_freeview;91.0;5555.0;5555.0;freeview_timeup;[468.0, -304.0];[35.0, 30.0];0.0;[-467.0, -306.0];[35.0, 30.0];1.0;[[-627.0, 289.0], [453.0, -47.0]];[[35.0, 30.0], [35.0, 30.0]];[0, 0];93.0;4.0;4.0;1.0;0.0;2.0;1.0;90.0;31.0;2.0
92;1;0;0;6;0;14.0;test_freeview;92.0;5555.0;5555.0;freeview_timeup;[617.0, -303.0];[35.0, 30.0];0.0;[-637.0, 165.0];[35.0, 30.0];0.0;[];[];[];91.0;4.0;4.0;1.0;0.0;0.0;1.0;91.0;32.0;2.0
93;0;0;16;5;0;14.0;test_freeview;93.0;5555.0;5555.0;freeview_timeup;[294.0, -55.0];[35.0, 30.0];0.0;[-452.0, -194.0];[35.0, 30.0];0.0;[[-619.0, -56.0], [-623.0, 287.0], [-480.0, -53.0], [-457.0, 174.0], [-458.0, 309.0], [-315.0, -308.0], [-298.0, 51.0], [-315.0, 292.0], [308.0, -294.0], [296.0, -185.0], [459.0, -308.0], [454.0, -57.0], [461.0, 67.0], [469.0, 190.0], [639.0, 179.0], [634.0, 289.0]];[[35.0, 30.0], [35.0, 30.0], [35.0, 30.0], [35.0, 30.0], [35.0, 30.0], [35.0, 30.0], [35.0, 30.0], [35.0, 30.0], [35.0, 30.0], [35.0, 30.0], [35.0, 30.0], [35.0, 30.0], [35.0, 30.0], [35.0, 30.0], [35.0, 30.0], [35.0, 30.0]];[1, 1, 0, 1, 1, 0, 1, 1, 0, 1, 1, 0, 0, 1, 1, 0];89.0;4.0;4.0;0.0;0.0;16.0;1.0;92.0;33.0;2.0
94;1;0;4;8;0;14.0;test_freeview;94.0;5555.0;5555.0;freeview_timeup;[-470.0, 181.0];[35.0, 30.0];0.0;[450.0, 51.0];[35.0, 30.0];1.0;[[-628.0, 47.0], [-644.0, 175.0], [479.0, -314.0], [621.0, -314.0]];[[35.0, 30.0], [35.0, 30.0], [35.0, 30.0], [35.0, 30.0]];[1, 0, 0, 0];95.0;4.0;4.0;1.0;0.0;4.0;1.0;93.0;34.0;2.0
95;1;1;8;19;0;14.0;test_freeview;95.0;5555.0;5555.0;freeview_timeup;[-314.0, -63.0];[35.0, 30.0];1.0;[468.0, 188.0];[35.0, 30.0];1.0;[[-617.0, 290.0], [-314.0, -170.0], [-308.0, 62.0], [-295.0, 179.0], [291.0, 67.0], [461.0, -314.0], [624.0, -62.0], [640.0, 175.0]];[[35.0, 30.0], [35.0, 30.0], [35.0, 30.0], [35.0, 30.0], [35.0, 30.0], [35.0, 30.0], [35.0, 30.0], [35.0, 30.0]];[0, 1, 0, 0, 0, 0, 0, 1];118.0;4.0;4.0;1.0;1.0;8.0;1.0;94.0;35.0;2.0
96;1;0;16;10;0;14.0;test_freeview;96.0;5555.0;5555.0;freeview_timeup;[302.0, -179.0];[35.0, 30.0];0.0;[-292.0, -296.0];[35.0, 30.0];1.0;[[-619.0, -304.0], [-627.0, -188.0], [-643.0, 176.0], [-469.0, -293.0], [-298.0, -188.0], [-310.0, -74.0], [-301.0, 62.0], [-298.0, 165.0], [289.0, -287.0], [305.0, -68.0], [289.0, 308.0], [474.0, -50.0], [475.0, 186.0], [628.0, -180.0], [617.0, 69.0], [615.0, 179.0]];[[35.0, 30.0], [35.0, 30.0], [35.0, 30.0], [35.0, 30.0], [35.0, 30.0], [35.0, 30.0], [35.0, 30.0], [35.0, 30.0], [35.0, 30.0], [35.0, 30.0], [35.0, 30.0], [35.0, 30.0], [35.0, 30.0], [35.0, 30.0], [35.0, 30.0], [35.0, 30.0]];[1, 0, 1, 0, 0, 1, 0, 1, 0, 0, 0, 0, 0, 1, 1, 0];99.0;4.0;4.0;1.0;0.0;16.0;1.0;95.0;36.0;2.0
97;0;0;2;2;0;14.0;test_freeview;97.0;5555.0;5555.0;freeview_timeup;[-469.0, 55.0];[35.0, 30.0];0.0;[301.0, -301.0];[35.0, 30.0];1.0;[[-457.0, -311.0], [621.0, 166.0]];[[35.0, 30.0], [35.0, 30.0]];[1, 1];83.0;4.0;4.0;0.0;0.0;2.0;1.0;96.0;37.0;2.0
98;0;0;4;3;0;14.0;test_freeview;98.0;5555.0;5555.0;freeview_timeup;[-476.0, 175.0];[35.0, 30.0];0.0;[307.0, -291.0];[35.0, 30.0];1.0;[[-456.0, 52.0], [-292.0, 68.0], [298.0, -178.0], [294.0, 181.0]];[[35.0, 30.0], [35.0, 30.0], [35.0, 30.0], [35.0, 30.0]];[1, 0, 1, 0];85.0;4.0;4.0;0.0;0.0;4.0;1.0;97.0;38.0;2.0
99;0;0;8;4;0;14.0;test_freeview;99.0;5555.0;5555.0;freeview_timeup;[468.0, 188.0];[35.0, 30.0];0.0;[-454.0, 190.0];[35.0, 30.0];1.0;[[-454.0, -309.0], [-469.0, -182.0], [-470.0, -66.0], [-287.0, -46.0], [300.0, -172.0], [296.0, -60.0], [631.0, -175.0], [641.0, 56.0]];[[35.0, 30.0], [35.0, 30.0], [35.0, 30.0], [35.0, 30.0], [35.0, 30.0], [35.0, 30.0], [35.0, 30.0], [35.0, 30.0]];[0, 0, 1, 1, 1, 1, 0, 0];87.0;4.0;4.0;0.0;0.0;8.0;1.0;98.0;39.0;2.0
100;0;1;0;11;0;14.0;test_freeview;100.0;5555.0;5555.0;freeview_timeup;[456.0, -62.0];[35.0, 30.0];1.0;[-294.0, 191.0];[35.0, 30.0];1.0;[];[];[];102.0;4.0;4.0;0.0;1.0;0.0;1.0;99.0;40.0;2.0
101;0;1;4;13;0;14.0;test_freeview;101.0;5555.0;5555.0;freeview_timeup;[-302.0, -291.0];[35.0, 30.0];0.0;[286.0, 168.0];[35.0, 30.0];1.0;[[-465.0, -290.0], [-477.0, 63.0], [617.0, -310.0], [632.0, -66.0]];[[35.0, 30.0], [35.0, 30.0], [35.0, 30.0], [35.0, 30.0]];[1, 0, 1, 1];105.0;5.0;5.0;0.0;1.0;4.0;1.0;100.0;41.0;2.0
102;0;1;0;11;0;14.0;test_freeview;102.0;5555.0;5555.0;freeview_timeup;[-313.0, -68.0];[35.0, 30.0];0.0;[303.0, -291.0];[35.0, 30.0];0.0;[];[];[];101.0;5.0;5.0;0.0;1.0;0.0;1.0;101.0;42.0;2.0
103;0;0;16;5;0;14.0;test_freeview;103.0;5555.0;5555.0;freeview_timeup;[461.0, -166.0];[35.0, 30.0];1.0;[-617.0, -48.0];[35.0, 30.0];1.0;[[-629.0, -302.0], [-633.0, -167.0], [-465.0, -189.0], [-475.0, 177.0], [-304.0, -177.0], [-308.0, -51.0], [-306.0, 72.0], [-298.0, 295.0], [286.0, -195.0], [285.0, -54.0], [478.0, -305.0], [479.0, 58.0], [621.0, -292.0], [631.0, -171.0], [629.0, -53.0], [629.0, 300.0]];[[35.0, 30.0], [35.0, 30.0], [35.0, 30.0], [35.0, 30.0], [35.0, 30.0], [35.0, 30.0], [35.0, 30.0], [35.0, 30.0], [35.0, 30.0], [35.0, 30.0], [35.0, 30.0], [35.0, 30.0], [35.0, 30.0], [35.0, 30.0], [35.0, 30.0], [35.0, 30.0]];[1, 0, 1, 1, 1, 0, 0, 1, 0, 0, 1, 1, 1, 0, 1, 0];90.0;5.0;5.0;0.0;0.0;16.0;1.0;102.0;43.0;2.0
104;1;0;0;6;0;14.0;test_freeview;104.0;5555.0;5555.0;freeview_timeup;[616.0, 57.0];[35.0, 30.0];1.0;[-645.0, 72.0];[35.0, 30.0];1.0;[];[];[];92.0;5.0;5.0;1.0;0.0;0.0;1.0;103.0;44.0;2.0
105;1;1;16;20;0;14.0;test_freeview;105.0;5555.0;5555.0;freeview_timeup;[637.0, 181.0];[35.0, 30.0];0.0;[-634.0, -182.0];[35.0, 30.0];0.0;[[-638.0, -312.0], [-625.0, 48.0], [-635.0, 191.0], [-617.0, 285.0], [-453.0, 70.0], [-468.0, 314.0], [-308.0, -50.0], [-288.0, 45.0], [291.0, -298.0], [291.0, -177.0], [478.0, -73.0], [474.0, 46.0], [454.0, 191.0], [644.0, -293.0], [628.0, -185.0], [639.0, 66.0]];[[35.0, 30.0], [35.0, 30.0], [35.0, 30.0], [35.0, 30.0], [35.0, 30.0], [35.0, 30.0], [35.0, 30.0], [35.0, 30.0], [35.0, 30.0], [35.0, 30.0], [35.0, 30.0], [35.0, 30.0], [35.0, 30.0], [35.0, 30.0], [35.0, 30.0], [35.0, 30.0]];[1, 0, 0, 0, 0, 0, 1, 0, 0, 1, 0, 1, 1, 0, 0, 1];119.0;5.0;5.0;1.0;1.0;16.0;1.0;104.0;45.0;2.0
106;0;1;8;14;0;14.0;test_freeview;106.0;5555.0;5555.0;freeview_timeup;[308.0, -298.0];[35.0, 30.0];0.0;[-471.0, -57.0];[35.0, 30.0];0.0;[[-629.0, -194.0], [-640.0, 69.0], [-473.0, 180.0], [-289.0, 176.0], [301.0, 55.0], [289.0, 192.0], [292.0, 286.0], [469.0, -51.0]];[[35.0, 30.0], [35.0, 30.0], [35.0, 30.0], [35.0, 30.0], [35.0, 30.0], [35.0, 30.0], [35.0, 30.0], [35.0, 30.0]];[1, 0, 1, 0, 0, 0, 0, 1];107.0;5.0;5.0;0.0;1.0;8.0;1.0;105.0;46.0;2.0
107;0;1;16;15;0;14.0;test_freeview;107.0;5555.0;5555.0;freeview_timeup;[479.0, 297.0];[35.0, 30.0];0.0;[-307.0, 304.0];[35.0, 30.0];1.0;[[-637.0, -307.0], [-645.0, 49.0], [-624.0, 285.0], [-472.0, -289.0], [-456.0, -191.0], [-469.0, 294.0], [-292.0, -294.0], [-288.0, 175.0], [304.0, -190.0], [309.0, -53.0], [289.0, 47.0], [314.0, 185.0], [304.0, 310.0], [459.0, -287.0], [628.0, -183.0], [636.0, 47.0]];[[35.0, 30.0], [35.0, 30.0], [35.0, 30.0], [35.0, 30.0], [35.0, 30.0], [35.0, 30.0], [35.0, 30.0], [35.0, 30.0], [35.0, 30.0], [35.0, 30.0], [35.0, 30.0], [35.0, 30.0], [35.0, 30.0], [35.0, 30.0], [35.0, 30.0], [35.0, 30.0]];[0, 0, 1, 0, 1, 1, 1, 1, 0, 0, 1, 1, 0, 1, 1, 1];109.0;5.0;5.0;0.0;1.0;16.0;1.0;106.0;47.0;2.0
108;1;0;8;9;0;14.0;test_freeview;108.0;5555.0;5555.0;freeview_timeup;[297.0, -178.0];[35.0, 30.0];1.0;[-632.0, 287.0];[35.0, 30.0];0.0;[[-631.0, 190.0], [-464.0, -189.0], [-472.0, 66.0], [-298.0, 174.0], [458.0, -177.0], [451.0, -57.0], [643.0, -294.0], [621.0, -70.0]];[[35.0, 30.0], [35.0, 30.0], [35.0, 30.0], [35.0, 30.0], [35.0, 30.0], [35.0, 30.0], [35.0, 30.0], [35.0, 30.0]];[0, 0, 0, 0, 1, 1, 1, 0];98.0;5.0;5.0;1.0;0.0;8.0;1.0;107.0;48.0;2.0
109;1;1;0;16;0;14.0;test_freeview;109.0;5555.0;5555.0;freeview_timeup;[-617.0, 287.0];[35.0, 30.0];0.0;[625.0, 63.0];[35.0, 30.0];1.0;[];[];[];111.0;5.0;5.0;1.0;1.0;0.0;1.0;108.0;49.0;2.0
110;0;1;2;12;0;14.0;test_freeview;110.0;5555.0;5555.0;freeview_timeup;[314.0, 193.0];[35.0, 30.0];0.0;[-286.0, -315.0];[35.0, 30.0];1.0;[[-462.0, 52.0], [299.0, 310.0]];[[35.0, 30.0], [35.0, 30.0]];[1, 1];103.0;5.0;5.0;0.0;1.0;2.0;1.0;109.0;50.0;2.0
111;1;1;4;18;0;14.0;test_freeview;111.0;5555.0;5555.0;freeview_timeup;[-640.0, 301.0];[35.0, 30.0];0.0;[631.0, -286.0];[35.0, 30.0];0.0;[[-642.0, -191.0], [-311.0, 52.0], [307.0, 166.0], [615.0, -59.0]];[[35.0, 30.0], [35.0, 30.0], [35.0, 30.0], [35.0, 30.0]];[1, 0, 0, 0];115.0;5.0;5.0;1.0;1.0;4.0;1.0;110.0;51.0;2.0
112;0;0;4;3;0;14.0;test_freeview;112.0;5555.0;5555.0;freeview_timeup;[-308.0, 178.0];[35.0, 30.0];1.0;[639.0, -314.0];[35.0, 30.0];1.0;[[-632.0, -311.0], [-302.0, -287.0], [450.0, 305.0], [620.0, 193.0]];[[35.0, 30.0], [35.0, 30.0], [35.0, 30.0], [35.0, 30.0]];[1, 1, 0, 1];86.0;5.0;5.0;0.0;0.0;4.0;1.0;111.0;52.0;2.0
113;0;0;8;4;0;14.0;test_freeview;113.0;5555.0;5555.0;freeview_timeup;[-641.0, -56.0];[35.0, 30.0];1.0;[472.0, 74.0];[35.0, 30.0];0.0;[[-632.0, -187.0], [-624.0, 71.0], [-476.0, 194.0], [-289.0, 180.0], [310.0, -298.0], [285.0, -191.0], [292.0, 314.0], [462.0, 289.0]];[[35.0, 30.0], [35.0, 30.0], [35.0, 30.0], [35.0, 30.0], [35.0, 30.0], [35.0, 30.0], [35.0, 30.0], [35.0, 30.0]];[0, 1, 1, 0, 1, 1, 1, 1];88.0;5.0;5.0;0.0;0.0;8.0;1.0;112.0;53.0;2.0
114;1;1;2;17;0;14.0;test_freeview;114.0;5555.0;5555.0;freeview_timeup;[-452.0, -50.0];[35.0, 30.0];0.0;[637.0, -173.0];[35.0, 30.0];0.0;[[-645.0, -303.0], [452.0, 291.0]];[[35.0, 30.0], [35.0, 30.0]];[1, 0];113.0;5.0;5.0;1.0;1.0;2.0;1.0;113.0;54.0;2.0
115;0;0;2;2;0;14.0;test_freeview;115.0;5555.0;5555.0;freeview_timeup;[-632.0, 60.0];[35.0, 30.0];1.0;[639.0, 178.0];[35.0, 30.0];1.0;[[-626.0, -169.0], [294.0, 307.0]];[[35.0, 30.0], [35.0, 30.0]];[1, 1];84.0;5.0;5.0;0.0;0.0;2.0;1.0;114.0;55.0;2.0
116;1;0;4;8;0;14.0;test_freeview;116.0;5555.0;5555.0;freeview_timeup;[-627.0, -175.0];[35.0, 30.0];1.0;[296.0, 52.0];[35.0, 30.0];0.0;[[-637.0, 72.0], [-297.0, 73.0], [312.0, 188.0], [477.0, -62.0]];[[35.0, 30.0], [35.0, 30.0], [35.0, 30.0], [35.0, 30.0]];[0, 1, 0, 0];96.0;5.0;5.0;1.0;0.0;4.0;1.0;115.0;56.0;2.0
117;1;1;8;19;0;14.0;test_freeview;117.0;5555.0;5555.0;freeview_timeup;[459.0, -75.0];[35.0, 30.0];0.0;[-465.0, 307.0];[35.0, 30.0];0.0;[[-627.0, 179.0], [-457.0, -169.0], [-461.0, -72.0], [-286.0, -314.0], [475.0, -307.0], [454.0, -171.0], [644.0, -72.0], [629.0, 165.0]];[[35.0, 30.0], [35.0, 30.0], [35.0, 30.0], [35.0, 30.0], [35.0, 30.0], [35.0, 30.0], [35.0, 30.0], [35.0, 30.0]];[1, 1, 0, 1, 0, 1, 1, 1];117.0;5.0;5.0;1.0;1.0;8.0;1.0;116.0;57.0;2.0
118;0;0;0;1;0;14.0;test_freeview;118.0;5555.0;5555.0;freeview_timeup;[-471.0, -55.0];[35.0, 30.0];1.0;[472.0, -57.0];[35.0, 30.0];1.0;[];[];[];82.0;5.0;5.0;0.0;0.0;0.0;1.0;117.0;58.0;2.0
119;1;0;2;7;0;14.0;test_freeview;119.0;5555.0;5555.0;freeview_timeup;[462.0, 70.0];[35.0, 30.0];1.0;[-636.0, -195.0];[35.0, 30.0];1.0;[[-627.0, 303.0], [458.0, -307.0]];[[35.0, 30.0], [35.0, 30.0]];[1, 0];94.0;5.0;5.0;1.0;0.0;2.0;1.0;118.0;59.0;2.0
120;1;0;16;10;0;14.0;test_freeview;120.0;5555.0;5555.0;freeview_timeup;[288.0, -60.0];[35.0, 30.0];1.0;[-460.0, -53.0];[35.0, 30.0];1.0;[[-622.0, -166.0], [-476.0, -299.0], [-480.0, 179.0], [-452.0, 287.0], [-292.0, -169.0], [-288.0, -58.0], [-303.0, 50.0], [-299.0, 303.0], [299.0, -299.0], [461.0, -193.0], [450.0, -61.0], [451.0, 58.0], [642.0, -180.0], [632.0, -62.0], [620.0, 166.0], [633.0, 303.0]];[[35.0, 30.0], [35.0, 30.0], [35.0, 30.0], [35.0, 30.0], [35.0, 30.0], [35.0, 30.0], [35.0, 30.0], [35.0, 30.0], [35.0, 30.0], [35.0, 30.0], [35.0, 30.0], [35.0, 30.0], [35.0, 30.0], [35.0, 30.0], [35.0, 30.0], [35.0, 30.0]];[1, 0, 0, 1, 1, 1, 1, 1, 0, 1, 1, 1, 0, 1, 1, 1];100.0;5.0;5.0;1.0;0.0;16.0;1.0;119.0;60.0;2.0
121;0;0;4;3;0;14.0;test_freeview;121.0;5555.0;5555.0;freeview_timeup;[-291.0, 181.0];[35.0, 30.0];0.0;[466.0, -190.0];[35.0, 30.0];0.0;[[-618.0, 180.0], [-454.0, 313.0], [471.0, 185.0], [620.0, 193.0]];[[35.0, 30.0], [35.0, 30.0], [35.0, 30.0], [35.0, 30.0]];[0, 0, 1, 1];125.0;6.0;6.0;0.0;0.0;4.0;1.0;120.0;1.0;3.0
122;0;0;16;5;0;14.0;test_freeview;122.0;8888.0;8888.0;8888;[-301.0, 60.0];[35.0, 30.0];0.0;[630.0, -294.0];[35.0, 30.0];0.0;[[-638.0, -183.0], [-616.0, -63.0], [-629.0, 58.0], [-456.0, -289.0], [-472.0, -67.0], [-478.0, 175.0], [-473.0, 289.0], [-311.0, -63.0], [287.0, -51.0], [457.0, -180.0], [462.0, -58.0], [469.0, 65.0], [472.0, 187.0], [621.0, -64.0], [618.0, 62.0], [619.0, 185.0]];[[35.0, 30.0], [35.0, 30.0], [35.0, 30.0], [35.0, 30.0], [35.0, 30.0], [35.0, 30.0], [35.0, 30.0], [35.0, 30.0], [35.0, 30.0], [35.0, 30.0], [35.0, 30.0], [35.0, 30.0], [35.0, 30.0], [35.0, 30.0], [35.0, 30.0], [35.0, 30.0]];[1, 1, 0, 0, 1, 1, 0, 0, 0, 0, 0, 0, 1, 0, 1, 0];129.0;6.0;6.0;0.0;0.0;16.0;1.0;121.0;2.0;3.0
123;0;0;8;4;0;--;--;--;--;--;--;--;--;--;--;--;--;--;--;--;--;--;--;--;--;--;0.0;--;--;--
124;0;1;4;13;0;--;--;--;--;--;--;--;--;--;--;--;--;--;--;--;--;--;--;--;--;--;0.0;--;--;--
125;1;1;4;18;0;--;--;--;--;--;--;--;--;--;--;--;--;--;--;--;--;--;--;--;--;--;0.0;--;--;--
126;1;1;16;20;0;--;--;--;--;--;--;--;--;--;--;--;--;--;--;--;--;--;--;--;--;--;0.0;--;--;--
127;1;0;8;9;0;--;--;--;--;--;--;--;--;--;--;--;--;--;--;--;--;--;--;--;--;--;0.0;--;--;--
128;1;0;4;8;0;--;--;--;--;--;--;--;--;--;--;--;--;--;--;--;--;--;--;--;--;--;0.0;--;--;--
129;0;1;16;15;0;--;--;--;--;--;--;--;--;--;--;--;--;--;--;--;--;--;--;--;--;--;0.0;--;--;--
130;0;0;2;2;0;--;--;--;--;--;--;--;--;--;--;--;--;--;--;--;--;--;--;--;--;--;0.0;--;--;--
131;0;1;2;12;0;--;--;--;--;--;--;--;--;--;--;--;--;--;--;--;--;--;--;--;--;--;0.0;--;--;--
132;1;1;0;16;0;--;--;--;--;--;--;--;--;--;--;--;--;--;--;--;--;--;--;--;--;--;0.0;--;--;--
133;0;0;0;1;0;--;--;--;--;--;--;--;--;--;--;--;--;--;--;--;--;--;--;--;--;--;0.0;--;--;--
134;1;0;0;6;0;--;--;--;--;--;--;--;--;--;--;--;--;--;--;--;--;--;--;--;--;--;0.0;--;--;--
135;0;1;0;11;0;--;--;--;--;--;--;--;--;--;--;--;--;--;--;--;--;--;--;--;--;--;0.0;--;--;--
136;1;1;8;19;0;--;--;--;--;--;--;--;--;--;--;--;--;--;--;--;--;--;--;--;--;--;0.0;--;--;--
137;0;1;8;14;0;--;--;--;--;--;--;--;--;--;--;--;--;--;--;--;--;--;--;--;--;--;0.0;--;--;--
138;1;1;2;17;0;--;--;--;--;--;--;--;--;--;--;--;--;--;--;--;--;--;--;--;--;--;0.0;--;--;--
139;1;0;16;10;0;--;--;--;--;--;--;--;--;--;--;--;--;--;--;--;--;--;--;--;--;--;0.0;--;--;--
140;1;0;2;7;0;--;--;--;--;--;--;--;--;--;--;--;--;--;--;--;--;--;--;--;--;--;0.0;--;--;--
141;1;1;0;16;0;--;--;--;--;--;--;--;--;--;--;--;--;--;--;--;--;--;--;--;--;--;0.0;--;--;--
142;1;1;4;18;0;--;--;--;--;--;--;--;--;--;--;--;--;--;--;--;--;--;--;--;--;--;0.0;--;--;--
143;1;0;4;8;0;--;--;--;--;--;--;--;--;--;--;--;--;--;--;--;--;--;--;--;--;--;0.0;--;--;--
144;0;0;8;4;0;--;--;--;--;--;--;--;--;--;--;--;--;--;--;--;--;--;--;--;--;--;0.0;--;--;--
145;0;1;0;11;0;--;--;--;--;--;--;--;--;--;--;--;--;--;--;--;--;--;--;--;--;--;0.0;--;--;--
146;0;1;16;15;0;--;--;--;--;--;--;--;--;--;--;--;--;--;--;--;--;--;--;--;--;--;0.0;--;--;--
147;1;1;2;17;0;--;--;--;--;--;--;--;--;--;--;--;--;--;--;--;--;--;--;--;--;--;0.0;--;--;--
148;1;0;16;10;0;--;--;--;--;--;--;--;--;--;--;--;--;--;--;--;--;--;--;--;--;--;0.0;--;--;--
149;0;1;8;14;0;--;--;--;--;--;--;--;--;--;--;--;--;--;--;--;--;--;--;--;--;--;0.0;--;--;--
150;1;0;0;6;0;--;--;--;--;--;--;--;--;--;--;--;--;--;--;--;--;--;--;--;--;--;0.0;--;--;--
151;0;1;4;13;0;--;--;--;--;--;--;--;--;--;--;--;--;--;--;--;--;--;--;--;--;--;0.0;--;--;--
152;1;1;16;20;0;--;--;--;--;--;--;--;--;--;--;--;--;--;--;--;--;--;--;--;--;--;0.0;--;--;--
153;0;1;2;12;0;--;--;--;--;--;--;--;--;--;--;--;--;--;--;--;--;--;--;--;--;--;0.0;--;--;--
154;0;0;4;3;0;--;--;--;--;--;--;--;--;--;--;--;--;--;--;--;--;--;--;--;--;--;0.0;--;--;--
155;0;0;0;1;0;--;--;--;--;--;--;--;--;--;--;--;--;--;--;--;--;--;--;--;--;--;0.0;--;--;--
156;0;0;2;2;0;--;--;--;--;--;--;--;--;--;--;--;--;--;--;--;--;--;--;--;--;--;0.0;--;--;--
157;0;0;16;5;0;--;--;--;--;--;--;--;--;--;--;--;--;--;--;--;--;--;--;--;--;--;0.0;--;--;--
158;1;1;8;19;0;--;--;--;--;--;--;--;--;--;--;--;--;--;--;--;--;--;--;--;--;--;0.0;--;--;--
159;1;0;8;9;0;--;--;--;--;--;--;--;--;--;--;--;--;--;--;--;--;--;--;--;--;--;0.0;--;--;--
160;1;0;2;7;0;--;--;--;--;--;--;--;--;--;--;--;--;--;--;--;--;--;--;--;--;--;0.0;--;--;--
161;0;1;4;13;0;--;--;--;--;--;--;--;--;--;--;--;--;--;--;--;--;--;--;--;--;--;0.0;--;--;--
162;0;1;16;15;0;--;--;--;--;--;--;--;--;--;--;--;--;--;--;--;--;--;--;--;--;--;0.0;--;--;--
163;1;1;16;20;0;--;--;--;--;--;--;--;--;--;--;--;--;--;--;--;--;--;--;--;--;--;0.0;--;--;--
164;1;1;2;17;0;--;--;--;--;--;--;--;--;--;--;--;--;--;--;--;--;--;--;--;--;--;0.0;--;--;--
165;1;0;4;8;0;--;--;--;--;--;--;--;--;--;--;--;--;--;--;--;--;--;--;--;--;--;0.0;--;--;--
166;0;1;0;11;0;--;--;--;--;--;--;--;--;--;--;--;--;--;--;--;--;--;--;--;--;--;0.0;--;--;--
167;0;0;8;4;0;--;--;--;--;--;--;--;--;--;--;--;--;--;--;--;--;--;--;--;--;--;0.0;--;--;--
168;1;1;0;16;0;--;--;--;--;--;--;--;--;--;--;--;--;--;--;--;--;--;--;--;--;--;0.0;--;--;--
169;1;1;8;19;0;--;--;--;--;--;--;--;--;--;--;--;--;--;--;--;--;--;--;--;--;--;0.0;--;--;--
170;0;0;4;3;0;--;--;--;--;--;--;--;--;--;--;--;--;--;--;--;--;--;--;--;--;--;0.0;--;--;--
171;1;1;4;18;0;--;--;--;--;--;--;--;--;--;--;--;--;--;--;--;--;--;--;--;--;--;0.0;--;--;--
172;0;0;16;5;0;--;--;--;--;--;--;--;--;--;--;--;--;--;--;--;--;--;--;--;--;--;0.0;--;--;--
173;0;0;2;2;0;--;--;--;--;--;--;--;--;--;--;--;--;--;--;--;--;--;--;--;--;--;0.0;--;--;--
174;0;1;8;14;0;--;--;--;--;--;--;--;--;--;--;--;--;--;--;--;--;--;--;--;--;--;0.0;--;--;--
175;1;0;2;7;0;--;--;--;--;--;--;--;--;--;--;--;--;--;--;--;--;--;--;--;--;--;0.0;--;--;--
176;1;0;0;6;0;--;--;--;--;--;--;--;--;--;--;--;--;--;--;--;--;--;--;--;--;--;0.0;--;--;--
177;1;0;8;9;0;--;--;--;--;--;--;--;--;--;--;--;--;--;--;--;--;--;--;--;--;--;0.0;--;--;--
178;0;0;0;1;0;--;--;--;--;--;--;--;--;--;--;--;--;--;--;--;--;--;--;--;--;--;0.0;--;--;--
179;0;1;2;12;0;--;--;--;--;--;--;--;--;--;--;--;--;--;--;--;--;--;--;--;--;--;0.0;--;--;--
180;1;0;16;10;0;--;--;--;--;--;--;--;--;--;--;--;--;--;--;--;--;--;--;--;--;--;0.0;--;--;--
181;1;1;8;19;0;--;--;--;--;--;--;--;--;--;--;--;--;--;--;--;--;--;--;--;--;--;0.0;--;--;--
182;0;0;16;5;0;--;--;--;--;--;--;--;--;--;--;--;--;--;--;--;--;--;--;--;--;--;0.0;--;--;--
183;1;0;0;6;0;--;--;--;--;--;--;--;--;--;--;--;--;--;--;--;--;--;--;--;--;--;0.0;--;--;--
184;0;0;8;4;0;--;--;--;--;--;--;--;--;--;--;--;--;--;--;--;--;--;--;--;--;--;0.0;--;--;--
185;1;1;4;18;0;--;--;--;--;--;--;--;--;--;--;--;--;--;--;--;--;--;--;--;--;--;0.0;--;--;--
186;0;1;2;12;0;--;--;--;--;--;--;--;--;--;--;--;--;--;--;--;--;--;--;--;--;--;0.0;--;--;--
187;1;0;2;7;0;--;--;--;--;--;--;--;--;--;--;--;--;--;--;--;--;--;--;--;--;--;0.0;--;--;--
188;0;0;2;2;0;--;--;--;--;--;--;--;--;--;--;--;--;--;--;--;--;--;--;--;--;--;0.0;--;--;--
189;0;1;16;15;0;--;--;--;--;--;--;--;--;--;--;--;--;--;--;--;--;--;--;--;--;--;0.0;--;--;--
190;0;1;4;13;0;--;--;--;--;--;--;--;--;--;--;--;--;--;--;--;--;--;--;--;--;--;0.0;--;--;--
191;1;1;2;17;0;--;--;--;--;--;--;--;--;--;--;--;--;--;--;--;--;--;--;--;--;--;0.0;--;--;--
192;1;0;8;9;0;--;--;--;--;--;--;--;--;--;--;--;--;--;--;--;--;--;--;--;--;--;0.0;--;--;--
193;1;0;16;10;0;--;--;--;--;--;--;--;--;--;--;--;--;--;--;--;--;--;--;--;--;--;0.0;--;--;--
194;0;1;8;14;0;--;--;--;--;--;--;--;--;--;--;--;--;--;--;--;--;--;--;--;--;--;0.0;--;--;--
195;0;0;4;3;0;--;--;--;--;--;--;--;--;--;--;--;--;--;--;--;--;--;--;--;--;--;0.0;--;--;--
196;1;1;16;20;0;--;--;--;--;--;--;--;--;--;--;--;--;--;--;--;--;--;--;--;--;--;0.0;--;--;--
197;0;0;0;1;0;--;--;--;--;--;--;--;--;--;--;--;--;--;--;--;--;--;--;--;--;--;0.0;--;--;--
198;1;0;4;8;0;--;--;--;--;--;--;--;--;--;--;--;--;--;--;--;--;--;--;--;--;--;0.0;--;--;--
199;0;1;0;11;0;--;--;--;--;--;--;--;--;--;--;--;--;--;--;--;--;--;--;--;--;--;0.0;--;--;--
200;1;1;0;16;0;--;--;--;--;--;--;--;--;--;--;--;--;--;--;--;--;--;--;--;--;--;0.0;--;--;--
201;1;0;8;9;0;--;--;--;--;--;--;--;--;--;--;--;--;--;--;--;--;--;--;--;--;--;0.0;--;--;--
202;1;0;4;8;0;--;--;--;--;--;--;--;--;--;--;--;--;--;--;--;--;--;--;--;--;--;0.0;--;--;--
203;0;1;2;12;0;--;--;--;--;--;--;--;--;--;--;--;--;--;--;--;--;--;--;--;--;--;0.0;--;--;--
204;0;1;0;11;0;--;--;--;--;--;--;--;--;--;--;--;--;--;--;--;--;--;--;--;--;--;0.0;--;--;--
205;1;0;0;6;0;--;--;--;--;--;--;--;--;--;--;--;--;--;--;--;--;--;--;--;--;--;0.0;--;--;--
206;0;0;8;4;0;--;--;--;--;--;--;--;--;--;--;--;--;--;--;--;--;--;--;--;--;--;0.0;--;--;--
207;0;0;16;5;0;--;--;--;--;--;--;--;--;--;--;--;--;--;--;--;--;--;--;--;--;--;0.0;--;--;--
208;1;1;0;16;0;--;--;--;--;--;--;--;--;--;--;--;--;--;--;--;--;--;--;--;--;--;0.0;--;--;--
209;1;1;8;19;0;--;--;--;--;--;--;--;--;--;--;--;--;--;--;--;--;--;--;--;--;--;0.0;--;--;--
210;1;0;2;7;0;--;--;--;--;--;--;--;--;--;--;--;--;--;--;--;--;--;--;--;--;--;0.0;--;--;--
211;1;1;4;18;0;--;--;--;--;--;--;--;--;--;--;--;--;--;--;--;--;--;--;--;--;--;0.0;--;--;--
212;0;1;4;13;0;--;--;--;--;--;--;--;--;--;--;--;--;--;--;--;--;--;--;--;--;--;0.0;--;--;--
213;1;0;16;10;0;--;--;--;--;--;--;--;--;--;--;--;--;--;--;--;--;--;--;--;--;--;0.0;--;--;--
214;1;1;16;20;0;--;--;--;--;--;--;--;--;--;--;--;--;--;--;--;--;--;--;--;--;--;0.0;--;--;--
215;0;0;4;3;0;--;--;--;--;--;--;--;--;--;--;--;--;--;--;--;--;--;--;--;--;--;0.0;--;--;--
216;0;0;2;2;0;--;--;--;--;--;--;--;--;--;--;--;--;--;--;--;--;--;--;--;--;--;0.0;--;--;--
217;0;1;8;14;0;--;--;--;--;--;--;--;--;--;--;--;--;--;--;--;--;--;--;--;--;--;0.0;--;--;--
218;1;1;2;17;0;--;--;--;--;--;--;--;--;--;--;--;--;--;--;--;--;--;--;--;--;--;0.0;--;--;--
219;0;0;0;1;0;--;--;--;--;--;--;--;--;--;--;--;--;--;--;--;--;--;--;--;--;--;0.0;--;--;--
220;0;1;16;15;0;--;--;--;--;--;--;--;--;--;--;--;--;--;--;--;--;--;--;--;--;--;0.0;--;--;--
221;1;0;2;7;0;--;--;--;--;--;--;--;--;--;--;--;--;--;--;--;--;--;--;--;--;--;0.0;--;--;--
222;0;1;8;14;0;--;--;--;--;--;--;--;--;--;--;--;--;--;--;--;--;--;--;--;--;--;0.0;--;--;--
223;1;1;2;17;0;--;--;--;--;--;--;--;--;--;--;--;--;--;--;--;--;--;--;--;--;--;0.0;--;--;--
224;0;0;2;2;0;--;--;--;--;--;--;--;--;--;--;--;--;--;--;--;--;--;--;--;--;--;0.0;--;--;--
225;1;0;16;10;0;--;--;--;--;--;--;--;--;--;--;--;--;--;--;--;--;--;--;--;--;--;0.0;--;--;--
226;0;0;8;4;0;--;--;--;--;--;--;--;--;--;--;--;--;--;--;--;--;--;--;--;--;--;0.0;--;--;--
227;1;0;8;9;0;--;--;--;--;--;--;--;--;--;--;--;--;--;--;--;--;--;--;--;--;--;0.0;--;--;--
228;0;0;4;3;0;--;--;--;--;--;--;--;--;--;--;--;--;--;--;--;--;--;--;--;--;--;0.0;--;--;--
229;0;1;4;13;0;--;--;--;--;--;--;--;--;--;--;--;--;--;--;--;--;--;--;--;--;--;0.0;--;--;--
230;1;0;0;6;0;--;--;--;--;--;--;--;--;--;--;--;--;--;--;--;--;--;--;--;--;--;0.0;--;--;--
231;0;1;16;15;0;--;--;--;--;--;--;--;--;--;--;--;--;--;--;--;--;--;--;--;--;--;0.0;--;--;--
232;0;0;0;1;0;--;--;--;--;--;--;--;--;--;--;--;--;--;--;--;--;--;--;--;--;--;0.0;--;--;--
233;1;1;0;16;0;--;--;--;--;--;--;--;--;--;--;--;--;--;--;--;--;--;--;--;--;--;0.0;--;--;--
234;1;1;4;18;0;--;--;--;--;--;--;--;--;--;--;--;--;--;--;--;--;--;--;--;--;--;0.0;--;--;--
235;0;1;0;11;0;--;--;--;--;--;--;--;--;--;--;--;--;--;--;--;--;--;--;--;--;--;0.0;--;--;--
236;1;0;4;8;0;--;--;--;--;--;--;--;--;--;--;--;--;--;--;--;--;--;--;--;--;--;0.0;--;--;--
237;1;1;8;19;0;--;--;--;--;--;--;--;--;--;--;--;--;--;--;--;--;--;--;--;--;--;0.0;--;--;--
238;0;0;16;5;0;--;--;--;--;--;--;--;--;--;--;--;--;--;--;--;--;--;--;--;--;--;0.0;--;--;--
239;1;1;16;20;0;--;--;--;--;--;--;--;--;--;--;--;--;--;--;--;--;--;--;--;--;--;0.0;--;--;--
240;0;1;2;12;0;--;--;--;--;--;--;--;--;--;--;--;--;--;--;--;--;--;--;--;--;--;0.0;--;--;--
